accX,accY,accZ,Activity
-1.712550712380348,-12.778975345395736,-0.16051065573442638,A
4.220169615313335,-17.784378424666667,0.8529174416391148,A
0.8000100666052709,-14.562848043412163,0.5622556290617461,A
0.16616906365263406,-15.10955564887042,0.7082965801114507,A
-0.42570053837044874,-6.8313766950998955,1.8744289304678312,A
-3.1695401179683103,-4.299093141797019,0.8205036377349955,A
-4.143746095739118,-0.9135335463181617,2.440150537448802,A
-6.641896635103099,-1.1430648187698196,3.7847616790179717,A
-8.44548582803911,-3.2664441417317,5.715512493198348,A
-10.144505830514053,-1.829836519522489,4.103343709581585,A
-7.5597590277986955,-0.8114375774175268,4.959098424509002,A
-8.056088877256474,-1.7706280417278188,3.369422941644519,A
-5.778978590122712,-0.32618685446639883,3.8457817008630677,A
-8.527308916080665,-1.1856594787083161,4.913526609443764,A
-7.401389228169453,1.384823821205112,9.544803217796625,A
-9.069557824873975,-2.0735999051649454,6.014770344787372,A
-9.143508142714277,-1.0955002094918074,4.723804087789486,A
-9.47486487775156,-0.3982973101126264,4.2850950496784606,A
-10.168554807240886,2.33724295619009,3.6335577162422137,A
-10.04187383669315,3.5886830322394063,3.5038387674471445,A
-6.908915580004337,4.939357012080157,2.784783028391073,A
-4.146584399128216,4.255883819962972,2.0309781760873165,A
-3.3406968377280144,4.357469313180916,0.16971570355836144,A
-3.561147070066988,5.799646792379753,-1.888742080724785,A
-3.771511201124465,8.988790358235788,1.774632616609435,A
-5.9549772153208735,7.834772232014412,4.1575523191452195,A
-6.247208949885216,7.668543251237795,2.079942843331167,A
-5.292142424143484,5.6468312406578995,1.4094270895436511,A
-2.8990998434366464,-1.5281647655827906,3.0495253598244467,A
-1.220831946565315,-5.349492291808997,6.11179755074351,A
-0.24625193873617818,-7.938096237572617,10.259918563802664,A
-2.53145056328259,-4.7193042490910955,10.134709671503538,A
1.8442054599639055,-4.231879659720009,10.801621180729015,A
3.654253576005539,-6.48949032620207,9.996232960942585,A
10.737298900335437,-8.478415473905565,11.700735173294582,A
13.534365593526926,-5.617464882510401,7.572815864669806,A
9.54971574252198,-3.7592137958300884,6.031353304733608,A
4.824714135897258,-4.546309847465135,4.51753014636182,A
3.867512016489358,-2.180723520001248,3.3909964647509963,A
4.871624864668898,-1.2148812004949656,3.3632746718222437,A
8.440870759836226,-2.220139617846985,3.6456762698703415,A
8.982544591860144,-2.684365567071168,3.4656944168983177,A
13.66995799010651,-3.0246690747093505,3.56239775896696,A
14.791375850832024,-3.68838876321474,2.376172779131147,A
6.620717618673521,-3.919775430983321,4.272209320815868,A
8.099359664791725,-3.6222064656338646,3.4700920744290067,A
5.756787235472537,-0.701323602614469,3.644900359460993,A
6.0193324233527825,-1.7703691839017708,5.352780577162043,A
8.349104630372619,-3.4825239109769095,5.122926424509469,A
10.954282499669363,-1.5281942879247918,4.660960303019137,A
10.101634690271888,-2.8351459206347482,4.92328862642976,A
14.50019253990201,-4.341213180852832,2.667763733118548,A
10.352870606340641,-2.7944395875295123,2.02297188581873,A
9.484306202526426,-3.400231558920025,3.2395323791430393,A
5.862178940891584,-1.2615428924409071,1.8837069890957505,A
6.945733650510966,-1.8395521034646531,2.375849704396452,A
6.109820860255494,-0.9960307104271013,1.3718669449120606,A
8.783706005328089,-2.122683609951906,2.835241214889096,A
8.741184435318656,-2.220453334931904,3.015697548691232,A
13.182349933993164,-1.8938375447530154,3.0403413065074725,A
11.238701867614822,-2.531434101072449,4.011112502231891,A
9.220239048016836,-3.2717827212845485,4.371973901853173,A
6.9257759486721575,-1.7953752757780324,3.2292424574669774,A
6.989544770613056,-2.221899118143729,3.0448686098837108,A
7.050958524973286,-3.2992010219548358,4.040939154955311,A
7.527333552465402,-3.6137135534745335,4.390097114642272,A
9.706292929885603,-2.3079108540915168,4.215042063932345,A
8.521034145610932,-2.5395882486688386,3.182172078891461,A
16.70917005216992,-4.6051013294681695,3.947463750047252,A
10.971396677846101,-2.9707629580775325,1.0692859607260976,A
12.543083786852698,2.097383331935667,1.336255069821436,A
5.747867854806842,-0.7488960872876049,1.8307064078243505,A
4.376664883950888,-1.6993790470822987,0.04371866154425396,A
5.018521265485589,-4.8345077234655545,-3.728110708383257,A
7.045227593940568,-6.404077040900089,-0.2457911146793156,A
7.944823112096135,-7.644743001046566,1.52258481459154,A
11.799627811058729,-5.142445817478265,2.838861807981145,A
11.315310148172145,-5.8640875300545465,2.7654289647507984,A
6.573124622427668,0.00074501393669493,2.3090782572524327,A
3.8356071278504147,-2.2851675929873134,2.199961116593903,A
6.040290565196838,-1.4529382370922446,6.157777649724394,A
4.571540920453378,-8.006035268800757,8.61584861354753,A
10.56252941382106,-8.03166382606889,3.371037577233265,A
10.68422633353042,-5.37092263735151,-0.7968724508516227,A
6.714261678101107,-5.696669269459186,1.8673672030148822,A
8.508089897007356,-7.464238569889087,3.4769263575221405,A
4.6903847146468465,-2.1630557442242466,3.2655129027733696,A
6.03319891770431,-4.6617327750493684,2.992509669991293,A
3.6428499090596356,-3.648377070538572,2.960298658064376,A
8.390212933663477,-12.854823257577014,4.314029693382915,A
13.341764618610402,-5.574012041547775,5.134469739976382,A
12.820295227771519,-0.5130509666314089,5.313617518336047,A
6.547130190821583,-4.249960171798053,1.3999712531220638,A
5.818186129436651,-1.868296748710078,2.8041625538246935,A
2.8829701210017284,-5.7169603226976315,1.2855473315945827,A
4.674797536256781,-3.1528836736812287,3.6473131683717344,A
1.5227239703208062,-5.026722726649359,2.8566264158968755,A
8.116713869624753,-2.793405031269298,2.453223334473849,A
17.42705414039158,-8.117426955795827,3.3920893797491503,A
13.211900245324287,-5.400479280148731,5.329544928482349,A
11.21340692269765,-1.3012318525797077,2.5234660213086273,A
6.9121018631180435,1.3213274635291228,3.4863409236798875,A
6.114503728757746,-3.7310293825338827,-2.370920392166007,A
0.2726322085548218,-2.6859099336193304,-1.6044895425986803,A
4.795307294320593,-3.407635434913576,2.40253485009442,A
19.333854937607658,-4.485341024627928,7.936114036032031,A
12.297615382376634,-3.7389357649955444,9.509509685035159,A
10.715705702092848,5.265607342969672,3.6920614427552203,A
0.5968884876268756,2.831386112934549,4.205937074603086,A
4.1714904013901615,-4.426201220025312,2.477008040976318,A
2.8968662583616953,-3.4312717254236205,1.281669657996243,A
16.742413300311053,-3.5131564418683654,2.4992903736296412,A
14.826895512953133,-6.362224234590137,1.139211512845595,A
10.305378278063788,-1.7518936151823654,5.129601639139647,A
8.927430721821882,0.45327926028506493,5.494044263666656,A
3.993701700243522,0.3611071605672469,1.7893587167732232,A
7.262508162681787,-2.1451204841148277,1.6797788952690462,A
6.002080785015998,-2.6270993159435756,0.6963389392734127,A
9.851091800561875,-6.4199348137762104,0.7296943686739327,A
12.294442721042378,-3.829945409483045,2.0743126524532705,A
10.569100468573318,-1.8371981106851116,3.9764517034342273,A
7.882482182607856,-8.242521641209146,1.2111145097665275,A
3.6871188049272727,-5.388607924700088,-2.7417737331783627,A
7.895826188210231,-4.202748043412663,1.8215779794145792,A
9.108346639440827,-6.28959965126837,-0.6979504927312797,A
10.905262793619746,-3.8989097736344407,3.1418111108297895,A
13.924431805578577,-5.721175244133217,-1.3791723270044662,A
7.6717609113620115,1.215599204718293,-4.482975569734196,A
5.9534553235032535,-0.5791294126847233,0.9110339767945912,A
6.218232624571471,-2.136088913872725,2.9955291603856895,A
11.901472320305222,-4.0601096713030405,2.1945448876052818,A
14.031062779990286,3.443601103037974,2.706284985530293,A
10.21542831698342,-3.845632653606074,-0.9678096467670834,A
12.342937855806893,-2.688729789628786,-0.7349593780389174,A
10.060425885574281,-0.9972078068499624,1.3620955046256131,A
8.419285245752933,5.821077087385177,1.9291682255547664,A
6.578739368761214,0.17148250661598463,2.47120994344459,A
7.643397000952516,-3.2329347579088505,0.2737813799983193,A
7.074414240110418,-4.697782536377804,3.0878482714860223,A
12.288145037651544,-3.7889197909589747,2.662112633653196,A
13.371882318284065,-4.412742235249881,3.6390354532200444,A
9.724113829735979,-3.1256383273584234,2.5791290309368886,A
9.722453386563993,-1.8290059851512805,1.1410198229429622,A
5.984835917207946,-1.2240586971584342,1.580808396579044,A
6.570270984089053,-1.8883410174972868,1.1072304604793213,A
9.079814994416093,-2.4342530921831265,0.06464572207006741,A
11.461842576100059,-2.1468219960496935,-0.11491846810373135,A
11.456741238373114,-1.7456475334729422,1.1664689989479047,A
11.252424166146938,-2.721527297062634,1.7848602642502742,A
10.544257669607697,-4.743431213347306,2.9825142169699768,A
9.043336966099437,-6.473738952655106,2.537979437395002,A
9.63974166745573,-6.622175235571472,2.6062401136102724,A
5.100798375767218,-8.389885411441556,1.7395349701268952,A
4.35243264384565,-7.837716274982187,0.7588663663921877,A
2.4636897216245597,-7.0819252534571,1.9831577053126423,A
2.390110189480111,-8.224928832036062,-0.2037513777166784,A
4.473354691836556,-9.517999529860822,-2.2219623418624392,A
4.051387385820915,-8.308435997961743,-2.6376816453129797,A
4.4022736306864445,-6.953330964501877,-0.7006944483574062,A
2.9883796905420357,-6.402148074597225,0.6627270312841823,A
2.0277883838555595,-8.586379316523464,-1.608647986024363,A
1.655623724720917,-9.028880781104855,-1.849364664907238,A
3.480030536546169,-10.345423407236856,0.349385607902724,A
4.002850760161389,-12.906459458602122,-4.156301228723612,A
5.551663977892901,-11.174532439648447,-3.194663361728637,A
5.455375729496367,-5.224710446883797,1.4116006047566751,A
2.176415410757062,-6.205079417022802,0.5801077546637461,A
1.7932033624982844,-6.788522663267708,0.3393685555695979,A
0.5430194769294131,-10.200552024289575,-1.4265419799185237,A
2.8271086146009323,-10.34150008436273,-0.458274662890938,A
1.848404166894718,-7.856069040103751,-2.059342741263744,A
5.45019502570876,-8.02125737731122,-0.24749814696128178,A
5.879792736980846,-8.573305272003152,-1.9820955297506346,A
8.769041573598509,-6.869501808300814,0.5350199661380162,A
9.728200196721177,-4.338513363612591,3.8229280507671684,A
9.017145793580928,-2.099291820758574,2.1083870981071233,A
10.911587775147074,-0.9214283507746655,2.3337936977781797,A
13.341836458297493,-1.6064251585664497,2.8198234917336604,A
8.670588022732003,-4.391767728622823,0.9683763699888616,A
10.269837925430132,-5.811017832545716,1.575554576375686,A
8.270367562444452,-4.182588226401286,1.1179453279560276,A
7.671785503276803,0.7557537053999752,1.5949717191261619,A
5.232804247709144,0.9821989456130205,1.9063514896120008,A
7.304193672043351,-2.8127402134980355,1.2805887728666452,A
7.544097872367343,-6.6054000497260645,3.4478060170890545,A
8.292139779833313,-4.4202172242384465,3.935234427015006,A
11.226959288407155,-1.3157721274260705,3.4045398403016742,A
14.270675620444988,-4.385344971644771,3.171650069439064,A
10.381094565742611,-4.478608536099893,2.5977247199621147,A
11.765589436007929,-3.021602087561668,1.8178844915827868,A
6.090192220781362,-2.940375054716405,2.210318474580299,A
5.695917885480888,-1.594610957918038,1.78172244359998,A
6.951256024049667,-2.4791179619037513,1.4194902457140033,A
10.774206715445853,-2.7508678096907575,0.9267880705779756,A
10.14185620245707,-2.527514116811568,1.0974684785645457,A
12.04960055651039,-3.4904528918891233,1.8046937530925584,A
9.32366984988529,-5.689248442735739,3.609756439204563,A
8.056006968567115,-2.7867345159913524,3.0227647324462,A
7.0080415493883494,0.025827813220277097,2.6557410698627937,A
5.910101695590708,1.388829570184655,4.23053495926017,A
6.897232174852778,-6.787458124413175,4.039950626251009,A
7.668594759604261,-8.144115051008757,2.5549433946767945,A
10.643145042789445,-2.9313072590022715,3.770452817649371,A
13.539936267096643,-3.483789823389755,4.374593815009675,A
13.211364076774988,-6.146439415082192,0.35391639456908625,A
8.154258131434998,-5.475315333121264,0.11959415062219314,A
5.388738381092249,-4.434506429401039,2.137817481381889,A
6.420572867609237,-2.295057500883006,0.7080733782284354,A
6.565019333118485,-2.7621891621778913,0.9583292643437498,A
9.814091485187406,-1.194398817398621,-0.33542871333174823,A
8.855878058880297,-3.2692462286169732,3.0925123776230032,A
13.917732183550843,-4.023910437873599,1.4960442756545842,A
10.728811655885643,-2.194855365693784,2.054940678183273,A
4.612927210459469,-1.9153479669179962,4.640058941170195,A
7.915278442139807,-2.93424738452308,2.646945251213919,A
7.38290771735459,-1.7457093313189813,5.070587249349953,A
8.383119828405382,-2.9659182606811916,6.040827504237896,A
13.87323466664083,-5.851817892754401,4.353299136962077,A
15.609948586804386,-5.292611203119741,2.968079287147796,A
9.588415484440095,-2.0575704209567127,1.5183995631270206,A
9.176794817676587,-1.7874260531306119,2.007245976204534,A
5.824855958065122,-1.6393472519743009,2.282877606979169,A
8.222128639147368,-2.5292913528766934,1.846476845034773,A
9.35262490018763,-2.1162278620264816,0.9484400037219972,A
10.62802386208585,-1.661242693846026,0.5042209625931353,A
10.616570171073025,-2.2296503580749207,0.47084023132244673,A
9.927026166708531,-4.514311072782961,3.766107642949797,A
6.169497266409547,-3.676804340352833,3.491273273773129,A
7.128882007557405,-0.49204026812331225,2.82231647829047,A
8.035537037680625,-0.3487161084260172,3.6398174752652057,A
9.619057070832511,-2.6029009329789226,4.300890558666116,A
9.538635007060375,-3.7534876542591515,4.553106344641759,A
13.781885954357628,-3.454905657141696,3.22070349951794,A
12.754721158668746,-3.518187064244402,4.833963816909562,A
9.067137795927177,-3.9823171891756943,3.3487491184725706,A
8.400531897097048,-1.812405865516319,2.491382088780968,A
7.948375120844564,-1.323042279124429,1.8977037544054505,A
7.097596629678218,-1.7225354795360595,1.8437063557139497,A
10.226952415186938,-2.6932428355961475,1.489732138475974,A
10.455935937407098,-1.9661240099231272,0.7655543918563311,A
10.706463869717595,-1.913363967611096,0.3980172724745872,A
10.061002249183007,-2.7390686819369217,2.189961279772383,A
6.22001880624763,-4.097178915035959,3.9848487890456123,A
7.44327616238341,-1.2443528005233597,2.7923191075958855,A
6.576191745247094,-0.5449322852831657,2.7073601046418463,A
6.576264202428395,-1.2170697958230008,4.173603207862596,A
9.481928240114103,-7.8628547900305765,2.834327007488494,A
7.7794348627622405,-9.799278989442469,-0.09779696889485001,A
9.441875344726776,-5.617126645053176,2.7018614819780433,A
15.93562050935135,-8.931299891361588,2.7477362175297078,A
13.984046436309312,-4.169928378568257,0.20714267122602756,A
9.502159799591253,-2.4408886259196994,1.9175678899735455,A
5.883405343900957,-1.9708481977730465,1.8689985523624035,A
5.974644451170648,-1.6703218793784593,1.322438924330699,A
8.387816789530104,-1.6427119769640317,0.7748207789234711,A
10.396247710736683,-1.680263434059392,1.2171851895941657,A
8.276887170161588,-2.9764370055435663,0.8923525037385809,A
13.372025883625838,-2.7823873282510023,0.4289688802019458,A
7.275842428484324,-3.351595264927553,2.7823453816670596,A
7.913345653533547,-5.0617951863390855,4.357985157097002,A
8.903383368820867,-3.317676040756473,4.797594915236035,A
9.626067995835998,-2.487592340315236,5.941112263999179,A
11.136519545961736,-4.825712505906352,4.607540644597199,A
15.647949961114314,-4.339163690693378,5.016748722032531,A
15.185932186603402,-4.377774423517191,2.517102115761573,A
13.176585778326908,-3.0001375609425716,2.907681766107225,A
8.658505498767912,-2.557942386332663,4.042754229026214,A
9.545290029129307,-0.6327700189003177,1.296893859953981,A
8.525592846537693,-0.8217458429100065,0.39196520662160905,A
9.31918988771384,-1.7161166713480658,1.848491254226271,A
8.349046758501668,-1.2671885166640784,1.3826150722153834,A
5.524421199404255,-0.4333992518726441,-1.0756660189379088,A
9.012459197879268,-5.225263069502475,2.0561160114293946,A
10.561196349028151,-7.262415507787136,4.6131626303229725,A
9.145132155951112,-6.448561068492156,0.000708208530410557,A
7.7239226285739155,-9.174469745683806,-0.6565591078199264,A
9.248744165277634,-10.199531065195702,1.0777963429753754,A
9.540168152431756,-8.109488605855724,1.236935284026366,A
12.135283692517936,-7.995381574448338,0.26600771882496965,A
10.550949148627023,-8.491484998083461,-1.2890753143197655,A
11.344766602757943,-5.846573472826168,-2.5420928821936375,A
8.33849476354915,-4.113035506982832,-0.2358643359186269,A
13.243648758051272,-3.2044181438045927,1.2293355638937524,A
13.281247021388607,-0.7349994507932006,0.4958561396852802,A
5.068777020525717,-0.9638299482419939,0.5334359746978155,A
6.148409294218676,-0.2449106236370948,0.7647424269827263,A
3.831211828890534,-5.223593400522776,0.7946758853795053,A
7.6994458007721605,-3.1749855674474614,3.610424769602451,A
7.280186460075021,-1.5133858214057208,6.359506871472155,A
8.205744778803192,-2.97420482845248,5.209664065902961,A
5.19564742951536,-3.9489520576350317,6.666275179845141,A
6.83362436805194,-5.333620788821995,7.826624585954142,A
9.483191672013765,-2.7405063078093845,7.069631064781119,A
9.543956255580765,-1.7021685163149731,4.645891475428096,A
13.54422173892612,-6.035148646846832,3.0462036046538628,A
11.849543846236235,-6.606761186793746,1.1565420818950318,A
6.40038659847053,-4.169956736631645,2.9360465101698168,A
5.790050976875693,-2.945540423034524,3.227347907943173,A
6.27902374205793,-2.2598423708765156,1.936069372992628,A
8.395302579661715,-2.030626087111691,0.4775392964336163,A
11.314615673270016,-2.1906334297750223,1.7872537866977092,A
11.195803158944653,-3.167451532399427,2.01430541249514,A
11.252675051154554,-4.933549230298999,2.8330154010467203,A
7.131978026284795,-4.50475283636092,3.57904596606942,A
6.628758412416679,-1.0173463804717986,3.218873641203355,A
5.869767591582008,0.3306221555497023,2.98274778401493,A
7.17781101537492,-1.5491382257753363,4.291744755623551,A
9.895407287702827,-4.2095127339524865,3.761701358019517,A
12.828012084507364,-4.0235774647940366,3.9784158323951035,A
13.858337664404164,-4.456395494646463,4.380932546066321,A
10.884588900663664,-3.1921294901903816,2.705921036675196,A
8.77845793394982,-1.8388894680273251,2.6511167889914495,A
5.860717719872783,-2.5175329003814433,2.33454059808337,A
6.918743565506813,-2.2663743964047796,1.9530067148084322,A
7.376837372634775,-2.741769079172964,1.3917874207185605,A
11.167079986424891,-1.994292836483923,1.7853018090723176,A
11.163889963818686,-2.225270316253622,1.8268386339402274,A
10.243168639243173,-3.2151499869916105,2.8347855242156026,A
9.064813832886674,-2.991371435678994,3.709629498070948,A
5.882874042757798,-1.430649630833668,3.7102479531272365,A
6.12488585169535,-1.8990277527904469,3.7189881444648734,A
7.488851230400726,-2.0881723096345133,4.307464987255972,A
11.228290007369223,-3.1682415730880926,4.30118007060939,A
11.322105907134564,-3.6138674441110403,3.954011828993518,A
14.00063902337912,-4.195295737229885,4.879887274711075,A
11.415577007575282,-3.3638072423768053,2.228792461918848,A
9.222294011885214,-1.7130627830338085,1.930746161278092,A
5.774884564373669,-2.525822322105917,2.3921312718463983,A
6.648835826733455,-2.5612297972204763,2.037157928927997,A
8.528396522906755,-2.8475442925814822,1.3223986757489872,A
10.842220963966037,-0.9295914144011462,1.053006129755268,A
8.300705142109543,-1.8659905615213839,2.0563017852408376,A
11.317788479698514,-3.274490451528399,2.035140214381331,A
10.593136483515696,-3.554322921918646,4.535478745330042,A
5.924450682901291,-2.374763708442397,4.541348227737308,A
7.292281923683233,-0.34036690450475454,2.746054889010786,A
7.9868659647656886,-1.3143814233883393,3.847246617838654,A
9.459693498187184,-3.76353069608594,4.4867765874739,A
10.866683754628108,-4.209781437770905,3.1713758967881858,A
13.102509659930272,-3.0980363010857968,4.199598541415771,A
11.317624550248588,-4.037798753635066,2.972404602298679,A
9.501777955732768,-2.2631081801377824,2.471835046078594,A
6.624716910662037,-1.87352282811118,2.537886997194567,A
7.098992733791021,-1.8531956791885393,1.3605285997658598,A
9.163655363754014,-2.654789573502029,1.4684968198703903,A
9.86314725869062,-1.5981419629127973,1.0852457544046064,A
9.400320674129075,-2.135977568813271,2.138438654744273,A
9.111288795092594,-2.872696027736516,1.5949258808658955,A
11.255099896294665,-3.2370661272027634,3.471673610846649,A
6.3843317078729065,-2.9258584357518718,4.156521262068119,A
7.136318994235343,-1.4699048262626149,2.9428839342331514,A
8.228713525469987,-0.7089865831197235,2.7596900211622724,A
9.41268086799117,-3.107645547174899,4.917927911903914,A
10.712577183734684,-4.408931930734254,3.6913686201938365,A
12.636337401009747,-3.4288304630106694,4.414092663268401,A
13.28473064168224,-4.578101734610819,3.3103951452604763,A
9.919071649828844,-2.3442660077283306,2.040367090140335,A
7.50669579293203,-1.847362234099006,2.3522099176451836,A
7.0301872424206895,-2.3567938824964556,1.7800668261584787,A
8.961551511605359,-2.42048463634687,1.638465012195254,A
10.958858869103443,-1.4616816610021217,0.5554963311431782,A
8.352037999428681,-1.344897567284315,1.4344569423184241,A
8.316420874829829,-2.995138568600275,2.320819926278609,A
11.818112698649287,-2.503460399446963,1.78845898614221,A
6.855604320136044,-3.3195959351989863,5.303889693053151,A
7.391412339686038,-2.282197881980172,2.7988874883191603,A
8.694261799743307,0.13516024732319412,2.6379054244753424,A
8.355477111339713,-1.8901094378667276,4.742016635548846,A
11.245252351518907,-5.894322323823442,4.580134355512883,A
12.471103588568809,-4.171895754777249,4.399919295509293,A
14.693599757683343,-3.173362965157631,3.691608837117535,A
11.405524027438503,-2.380074759608474,2.2907099672225018,A
8.47732462740717,-2.4501920261935872,2.794120086911164,A
6.9352791397695475,-2.2979910412734137,1.9241886041608833,A
8.422828666483367,-2.1901424852552336,1.3041876585514922,A
8.353877695397138,-1.2724137661320718,0.376894734266494,A
8.674798226329841,-1.5344227860205473,0.8191030550964777,A
7.185415978521729,-2.9850756158076575,1.6775938193985809,A
11.99155970250997,-2.786341664114444,1.8557752272791168,A
10.84289361131211,-3.0429294054293083,4.333006607703843,A
7.679798681358159,-1.9792886772929714,4.01056621874371,A
9.088375830000707,-1.280478226125517,2.3781749974587827,A
8.836462006465794,-1.816437635118433,3.868551883326559,A
7.968902989050851,-3.817396065017149,4.0417955355429,A
11.591984794530951,-3.6102987556844286,3.838594479098166,A
15.58412949762327,-3.423878211621604,3.7449737698739547,A
11.811814975868167,-4.159182491680235,3.338248515846853,A
10.8117614919356,-2.9660264961374234,2.399317087896077,A
8.806266823617216,-2.151452992463036,1.560871750761966,A
8.201237632924071,-1.4442934542598698,1.6128114531208038,A
7.778451547974102,-1.8302038556423033,1.403291213747015,A
7.682121001881331,-1.3576754147732093,0.3445686307360891,A
8.222563300598855,-1.7063409269498238,-0.12845048925541072,A
7.14572765715196,-3.108605544544673,1.5414254218110262,A
13.617870827441283,-4.147115774801195,1.3197236843297593,A
11.106289971158454,-2.9186355121113916,2.782183772301199,A
7.442209064153194,-2.6588655538688584,4.20070818640945,A
9.341556223600696,-1.364582394152734,2.3626844138131475,A
8.29889680381337,-1.3153695217012595,4.068478449823917,A
8.533190892353998,-3.856533041890268,4.360042900803791,A
11.51283345522947,-4.288621594484541,4.127664965515236,A
13.390380318771347,-3.0717864517739897,3.5332321933773656,A
12.140791449917788,-3.02248510545917,3.027426511381256,A
11.865080868610328,-2.2822430146905814,1.3770084680123773,A
8.823884269172703,-1.8811682109864976,1.8100432962414492,A
6.476649938867431,-2.2938969267367066,1.3579918823507495,A
7.713340957355266,-2.5510080177178516,1.6333224291985244,A
10.058606529781148,-1.1757462493745352,-0.17321728106020826,A
8.118179767193562,-0.19472796580132737,-0.4238554844444716,A
9.467150400699273,-2.3184907230120966,0.056816074796724694,A
10.950951866344585,-5.257208727743132,2.7785821414362744,A
8.907935481033391,-4.468170988988224,4.000876970908609,A
9.02633756253058,-0.48015460012997374,1.818930705496345,A
10.183910842041158,0.6186739626265039,2.800030289033187,A
10.077577296576958,-3.1792915473122205,6.715473625330855,A
10.051563004745013,-5.6601579790608225,5.197196571715733,A
11.46927735625977,-2.890082904039387,4.235817394096423,A
12.72402867365397,-2.74555032622611,4.296582853474117,A
11.923618699586907,-2.89482483033311,2.2574734636663902,A
11.468435776391798,-2.3979137799836168,1.8109268294951872,A
9.661915585944818,-2.0487709794667466,1.5496388920685955,A
8.33779045666203,-1.807550087369885,1.6818799342584576,A
8.44632164323588,-1.7663600515526614,0.817637689434227,A
8.289919593614977,-0.6989826537327843,0.5627779535478415,A
7.258211357410899,-1.5549690489970163,1.1887571289635612,A
10.840345409024325,-2.511010535105587,1.0396541519556592,A
11.80823926702121,-4.484076461896886,3.68238508867196,A
9.8370059504652,-3.78100590205727,3.4752283623992164,A
9.270919259297228,0.6910968857683962,1.7126902266618023,A
8.863223254678175,0.42331105687528947,4.014893073538707,A
9.893535001199158,-5.417324380682321,5.565398532527123,A
11.152694896401291,-6.614631682091243,5.0918499766269525,A
11.728804880151657,-4.325925221279391,5.059168215885337,A
13.945724871515338,-3.9035944625249215,2.9827719029986053,A
15.921092926761657,-2.543173004211867,1.9347714147338437,A
12.511898814959022,-0.9964151639662333,1.5266316301910554,A
8.835049713832149,-2.5681070140762525,1.1760934326063037,A
6.907185157766687,-1.8445115835293544,1.0534544798150232,A
5.901449441987412,-0.04511674921482627,0.687051853158912,A
4.500371535396656,-0.5365347534318203,1.2736469892925102,A
8.115492753371257,-1.4412335262695914,0.87269757996182,A
14.58579722886407,-3.549342532425913,3.2169075597509464,A
15.1194659624311,-6.800740658355334,5.053191409453909,A
9.230495878911707,-1.664250699464142,2.240962515910041,A
8.47638332952194,2.3806573894737646,4.8270983879078075,A
10.070307942961916,-1.97697630749491,4.1154069366366715,A
10.865076050302104,-5.957199611123928,3.4983982122716464,A
11.98120705478032,-5.351402557488363,2.9516941624840953,A
13.11395995185433,-3.5549460216749034,4.302307225262132,A
10.803051910735988,-3.0749725164516306,1.766040025978847,A
10.424034823796685,-1.4527005085829447,1.7496803461120134,A
7.992008971881787,-1.0586810697345326,1.3470941415097408,A
7.768531833772828,-1.4412799308902606,1.254236844669649,A
8.708312911077625,-2.161859289461784,-0.08638352744191796,A
8.201374228918029,-1.121300224976548,-0.2803222161807661,A
8.157912475309644,-2.7391770606333554,0.7875375407424308,A
11.555686984064494,-3.4556365019838453,1.5619575854143302,A
12.346851933168466,-5.084031249894107,4.104723982157743,A
7.000082506146076,-2.1292981105552236,4.085243304155981,A
8.85377426954725,1.5827963859174234,2.1479685046980523,A
8.815676294522317,-0.5632726239588787,4.781187282776577,A
9.28319251873771,-3.395852622562126,4.99419796367313,A
10.092404623308452,-4.231411180203394,3.876929568697606,A
13.10399671390704,-3.605011990068318,4.142843753861931,A
12.166846154521243,-3.6808418012522157,3.395915830980161,A
10.921249530603163,-2.172940238777972,1.2640786206716508,A
8.788647660645095,-1.8333493473600873,1.8298580347571942,A
8.19128210671448,-1.8124059188936048,1.2925377755434346,A
8.652991854001703,-2.732940609559014,1.468103284707671,A
9.54805017469491,-1.712965258216605,0.06695092199952064,A
8.440725776989629,-1.1034052894512476,0.9150947303971994,A
8.290726333203772,-2.7464385394882735,1.2589725847525313,A
11.438011959164342,-3.3571883271688607,3.18480190527092,A
8.0934137347524,-2.586114613051095,3.6945239539044685,A
8.913311855974944,-1.7544390980496054,3.7900924531085134,A
8.101830851752238,-0.5445498351233933,4.052176024367038,A
9.194007585440973,-3.0326310825620646,4.935616536048987,A
9.67803415302379,-5.273312046453892,3.322277725198104,A
14.958783343052112,-4.558704378550002,4.343613894567414,A
13.52035475075191,-3.3655245013236144,3.2041304300032603,A
8.898889974643764,-1.8728308152544626,2.578071181928543,A
9.233143425562119,-2.3085379526304406,2.249094864078058,A
6.382034720867345,-2.209297858909196,1.8505927763961478,A
8.192564533049909,-3.056526351011275,1.3493735749244067,A
8.43589472952985,-1.4744041821659337,0.5844935846814384,A
9.048927499215464,-1.1662554367134206,0.42944103756674645,A
8.796791147048761,-2.47650242156052,1.1968253193112284,A
11.29458038255192,-3.394127590985544,1.0833874353966528,A
10.480310523452612,-3.7404622381578236,3.7681132261721104,A
7.192761443019812,-2.3843839899831547,3.6755710114977114,A
8.325560284815424,-0.1798976425788864,2.7164664653996535,A
9.125985979676152,-1.3469955224319954,3.9959796646494308,A
9.754720367834835,-4.454759045616657,5.152832218739551,A
11.053314644159494,-4.244252531882476,4.174681781386187,A
10.85324420176513,-2.6947426567625343,4.675117628348436,A
12.880649863917085,-3.4610742717853515,2.7722225189951812,A
10.445127558152466,-2.397971529496677,1.3687460296761855,A
8.848101583703464,-2.431378189494253,1.3871211107181702,A
8.225742260696794,-1.8889173250112976,1.0678014131615132,A
8.656060500321527,-2.5260387970323706,1.153514837565805,A
9.299535902660802,-2.488208318574079,0.6682428870309219,A
9.113154186196727,-1.5780364201311996,1.713159050957716,A
8.768657866377664,-1.8769742641030787,2.182746845331344,A
10.829850567604879,-3.1555876895524007,2.856815749008904,A
9.290795049921812,-2.7399267958722215,4.45654080925276,A
7.769451745963249,-5.920185963750759,-1.7505253596193464,A
5.023778959291624,-9.233086558756106,-4.340988897124128,A
6.294699877723713,-7.612620869218687,-0.9326599249795516,A
7.09829552506257,-6.471073919852832,-1.2268623737104285,A
10.797494682317271,-6.481732335306481,-1.3768051146778708,A
10.627516322409328,-4.155536745257794,-0.4851789394017992,A
11.352305154799309,-4.692801968900294,0.7272949681255767,A
8.51394062234686,-3.5453342189210413,0.20100830612933787,A
6.886614678163761,-3.277025768283762,1.5545957739396465,A
6.000881402965017,-4.416066262093635,0.27060301036314377,A
8.98617575949472,-4.738191279362897,0.588032596450158,A
9.101815055322778,-2.703333390362536,-0.18769546607447862,A
9.574939968439969,-2.5262484614503578,0.8269963835046079,A
10.29251479237602,-3.488541037188419,0.7734233540381666,A
10.613414174203427,-3.7792566532775944,2.0461474125786707,A
7.89414643092212,-3.5952486083325264,2.6753774477497703,A
8.079599190102517,-1.8603073293763128,2.5255638315102344,A
6.055379063180294,-1.881431676736192,2.4680745170691853,A
8.1664154562903,-4.147585076123985,3.7174098094935175,A
9.759685912789264,-3.932735331162939,2.8228065811904757,A
12.98258828557973,-3.3957310283765865,3.6564299605111743,A
12.40569813702651,-3.6579597269640183,3.1983793119842896,A
10.427724898643024,-0.7072130985137141,2.0622925503788867,A
8.5801882450219,-1.8202172058524835,2.1254449026721836,A
6.060133786502654,-2.3379835130309456,1.9017323827496821,A
5.648304724048973,-2.6776404305500665,1.4056754357000107,A
8.027333468620869,-2.3373608238903585,1.1234796504046614,A
10.067474164963743,-1.8368998243902865,0.6646788536812741,A
14.985683517497103,-2.7168789349527076,1.1748826320259838,A
8.208061053397225,-5.630273090768632,5.5372511472341435,A
7.601437686403379,-3.3142453076068152,2.4187202511117123,A
9.642272395001571,1.2908540690489418,1.1577758004878342,A
6.364258162910268,-1.1263490710893795,2.52872179535195,A
8.533524184420092,-4.1451487521921555,3.9442055636583015,A
8.027100014376288,-4.527173806072322,3.682237671869508,A
12.04695352178392,-2.621097019687116,3.210300198866859,A
11.76249231905918,-2.296968034435137,3.951877482389438,A
11.227033883999837,-2.4300021109298457,3.022345844317915,A
10.849308586709283,-1.6445648721595512,2.229263251117708,A
6.433695090258457,-2.6948494437951034,2.368215625896582,A
5.9550811202427845,-2.7169667345416344,1.9161453008193559,A
6.851321325971348,-2.5393397730949783,1.0534238342851343,A
9.733201547651042,-1.7627151394885043,0.5266953059105187,A
9.445469858268174,-2.0680368569162355,1.1418073348069162,A
11.813299719398945,-3.7716495906536083,1.6138144779873036,A
9.405497677666206,-4.352323377607594,3.7913588631700303,A
7.505558121108895,-2.514276827110251,3.604535758441391,A
8.867684533197199,-0.39699940732325545,2.517753146943115,A
7.55354680550149,-1.163099136593608,3.171251915070666,A
8.176956706313769,-2.617679329068368,4.299316161983928,A
9.999830308364434,-3.8989660909422663,3.1825632213580075,A
11.166304827789778,-2.4907423807204343,2.995199755769369,A
12.392719756641526,-3.699395528837662,3.7632701917489655,A
10.820949755126872,-3.063782503602967,1.8646980610763688,A
9.080447186335977,-1.9327652507295245,1.9242846231426647,A
6.9846012461073075,-2.123596838762722,2.0246828423023397,A
6.7287383364384645,-2.042670948549739,1.6127968388225693,A
8.569086262343857,-2.3595315820271145,1.2227957904908058,A
10.673951812949614,-1.5475204114986796,0.9495517813741845,A
8.469124426130284,-2.945904604934997,2.0246948219525422,A
12.72071748582911,-3.3950922055157835,1.2744733029982276,A
9.497732454341689,-2.73887015732793,3.2875399042772595,A
5.941706927592734,-0.3620805670808331,3.8651889520322302,A
7.522994923604206,0.08797441893086144,2.715424052156448,A
7.201036763461516,-1.6905834527913202,3.220031140605385,A
9.158130249128154,-4.038820230513152,4.01927662922803,A
11.970659308017016,-4.550472876064602,3.4453845021809837,A
13.869821896264321,-3.1717540327873737,4.101736721119477,A
10.317499937123843,-2.4913469083579844,2.3907940967861077,A
10.560761185674444,-2.4238926028484427,1.9699684702559752,A
6.968055026442821,-2.373275538235529,2.140359524877812,A
6.801895520223939,-2.4085869998669986,1.7679183921203458,A
7.278050995517326,-2.6598429793946603,0.8546981754772354,A
11.645169797494663,-1.74739953308263,0.5527318914597256,A
8.88033311186925,-1.7311195506466899,1.8526849336397218,A
9.899801341656122,-2.9056817394286742,2.0506625344801837,A
11.225086335605193,-2.5040261467415608,1.9188151172915662,A
7.977429388938411,-2.4664316521587093,4.204481187662697,A
7.380465071873411,-2.2808391774423358,3.8572344556580633,A
7.705914723177978,-0.9653810497360156,3.299145932831241,A
8.212162793762278,-1.5600490233377655,3.609923064376628,A
11.525228599724715,-3.774981243289308,4.094217799714623,A
10.936229283145762,-3.8254367433774044,3.4300119205582265,A
13.505527594220915,-3.64764762858851,4.591467404789987,A
11.597840315053036,-3.271114468297398,1.8127149465685883,A
9.436672839309521,-1.703614398432809,2.109541742793038,A
6.889993211025562,-2.320963970519751,2.070446597368668,A
6.938215206210586,-1.9802541598241306,1.5168050357550356,A
9.005996719145754,-2.427420839504397,1.0303555329830751,A
10.785705631666161,-1.2143043338663144,1.055870127642082,A
7.98264261370437,-2.4108467541568483,2.3817850090235573,A
11.544041757267836,-2.8441552956380685,3.0908134432751453,A
9.917109732202047,-2.345541915854239,4.000867804028352,A
7.615143668711501,-1.146926963301732,4.0366038059880065,A
8.070396470074709,-0.6493294394171079,2.5474052865116548,A
7.033549385962501,-1.9396269494582974,3.8933084160386695,A
8.278164602507825,-3.9753514485955566,4.197552766197224,A
11.05464373589164,-3.7122245894672234,3.4785742750225275,A
9.47375736679344,-3.6867555878188014,3.8963044187130813,A
13.625074520258707,-3.9204067932085964,4.050669128383321,A
11.660774370687953,-3.346750556692321,2.513943210255579,A
9.491889969352615,-1.7855729021490454,2.320573909091362,A
9.48389784152474,-2.2398129815286993,2.16047679753224,A
8.12181766504443,-1.6693505420593273,1.8169558396997982,A
7.669330706702936,-2.0112406656792845,1.0070383520818689,A
7.532040670226438,-0.8426155321934321,1.3520522888981708,A
7.243602763544999,-2.612108065050469,1.8812077085671495,A
11.745376220738725,-2.5823621353955457,2.7194937110730777,A
11.297099691484949,-3.741018550028858,4.924770972311799,A
8.57897604290183,-0.9022428277058184,3.32352680626847,A
8.217123052344972,-0.21943446885709036,2.848256920771344,A
8.13187762943675,-1.8085798182135253,4.388463361728102,A
9.005360680939605,-5.5661258948847205,4.028600154879052,A
10.331209418110738,-2.3821657985655853,4.14017466761016,A
13.22247010788177,-2.4039154225578807,5.5324685707866195,A
11.01451253625901,-3.659201767768895,3.789658817714247,A
11.138788422514192,-4.208447602700027,1.3298929300575584,A
9.62378780189875,-2.907556043213716,1.131239446432998,A
7.299109556692279,-1.1581495031951785,1.456737138730245,A
7.775586036025739,-2.488496047019482,1.1784383896075026,A
10.191058001069909,-2.1188139782602344,0.654893446215757,A
9.449755601623773,-0.8881822247474569,0.23885285192191935,A
8.404064375057859,-2.276830581028793,2.283169014376399,A
8.568121194425563,-3.2793362516912965,1.8191072055033335,A
11.700376385259757,-2.726154963257336,2.8304454584477163,A
8.362409435226649,-2.4682007693285426,4.314912204507031,A
8.346475292452498,-1.5670683547359916,3.2806334763303875,A
8.354247498884254,-1.4224491859887927,3.133602097052326,A
9.542154057051418,-3.4588416806618447,4.841393965739676,A
10.079635277944535,-4.678293114832359,4.06737098648266,A
14.680101478913151,-4.483364001917496,4.123905719987433,A
12.641509532526328,-3.6316171539075643,2.7600632540054275,A
10.98262482346184,-2.3772234607265674,1.8572428674960264,A
8.572943187635529,-2.0484940969797534,1.4051194684462078,A
8.449244881573271,-2.247967206673904,1.3384501829998188,A
9.986282603071883,-2.3637977258516805,1.0087681693113337,A
9.25815422888862,-1.3824915009888927,0.07687166468105297,A
8.13863112322471,-1.4463777435006129,0.7826784411368995,A
8.161392533495954,-3.825963408022763,1.9435593773503244,A
10.429203908705139,-7.153289176998789,1.706423681945696,A
8.222833829740692,-4.937961404322714,4.568201527027724,A
4.928798394306776,-0.5184073876319151,4.401830422117935,A
5.506185080781834,-9.69291746337123,0.649652055170962,A
2.6199209160653583,-11.104938642103619,-1.0290966287824215,A
4.746813260858689,-5.216620373794253,3.7584339401884694,A
7.805496628535043,-10.108556951972453,4.095608903315439,A
10.112247290567119,-9.804472485946503,2.1991185576961865,A
9.485194508741106,-5.212059489799635,2.693339599786972,A
7.623182003755385,-7.204381656471579,-2.010388164727592,A
3.261560387314765,-6.876012118367822,1.3308866047664152,A
4.532024204767747,-5.676760781998465,0.8480046923564658,A
8.111375072682696,-3.2182027345853834,1.8491849135880747,A
11.210353893308813,-0.38719154650000165,3.0887218678169823,A
9.444068713874556,-5.987985909619969,2.4230147208563686,A
8.00064374879346,-7.943225138869136,0.43378483270087315,A
6.619125947931249,-10.552254436492143,-2.7251815793615672,A
7.10289316885919,-4.504728006728387,7.109999667182905,A
8.165547391920649,-2.5680794619068976,5.317562523511185,A
8.204210473122851,-4.153115325388494,-0.795206645670684,A
5.6338883801990605,-1.1260730541297679,3.9187924075705847,A
10.756763788442964,-7.318225426999224,7.619856138815134,A
9.329269387403746,-8.666496023758784,2.7186101885454095,A
5.659960552161273,-4.660088336361214,2.3681778463333445,A
7.239304019884958,-3.8382516883437776,-2.2838590448774165,A
5.144689269338508,-2.0443616482972806,3.5869750403520566,A
7.582974329053626,-7.17989738238347,-1.9503381876710346,A
5.09892556495068,-3.533294289577407,0.5680616287080159,A
6.163499693222588,-5.884575805459739,1.0782884014004988,A
7.011860276302894,-7.6378247220855515,0.5802674319702409,A
10.391552726871806,-6.519874607991813,-2.1687269301691265,A
9.697276411399946,-9.622430532236233,2.3571019158914295,A
6.75617650920671,-7.719745698590152,-1.376985682299121,A
10.934893062922864,-7.550746196184495,-1.399039952690371,A
7.976798148323643,-5.041701109099998,-3.561801010567234,A
4.497269409195158,-0.05974829025772515,1.552944062911984,A
7.552480765438559,-1.0282510552758521,3.592603867342177,A
8.596707323892723,-7.1607700445902935,-0.6525756910206372,A
6.284895584058418,-2.521862514760203,1.3899843518685469,A
12.711929249865468,-4.927754896322794,10.509527654497596,A
12.99200204836275,-9.175836631788572,1.3761379634808517,A
5.331797738557179,-6.953999175574122,-8.118252457301896,A
12.558705791940215,-1.9918126798391773,6.294915649057271,A
7.076991576609607,-4.7356031253017585,-0.14206416695747015,A
1.4231644984950744,-3.7831443218035603,-1.0394013549681214,A
7.538139505325354,-6.358301467747289,1.4648688395454352,A
8.000179162860775,-4.61304980545363,2.80952268303292,A
10.519553830098424,-7.0411364634209335,2.8336700950544667,A
8.89554358726321,-10.029195887476583,0.3605378050909101,A
12.474675837708268,-8.492226599218737,1.4383560559362936,A
11.170905589802146,-0.28613637481251875,2.217092388970919,A
6.765374925029507,-3.169401617487567,0.7509521468014929,A
8.980371597151844,-1.2595061509041745,4.17290749832071,A
13.969889219743127,2.473943066927929,3.088806407693665,A
6.298540423499364,1.885883343642551,0.8799478801884582,A
5.719509967827928,-7.236328799022016,-1.1998385046120021,A
7.929059736767371,-12.925285836183406,-1.3945357284070048,A
6.83387310339963,-4.597851926904804,-2.4389066855867463,A
11.01454028129168,-8.180845455207415,0.9798745840759384,A
8.31791386557328,-6.113331082238718,-1.696477397263121,A
7.91166826223786,-5.474726285912562,1.4605344486639267,A
5.135776456381568,-4.02295360387572,-0.18549391759016506,A
6.394419367926123,0.836372827686893,-0.6867412012986531,A
11.68721493991088,-4.266505868344509,0.49782499970012345,A
11.730166269107839,-6.189020234530545,0.5707087597499676,A
11.036793704810396,-2.987505210205393,5.336060106903812,A
10.16484035129298,1.7685499022127507,1.9573982447794636,A
9.734345546390877,-2.3925845249045463,2.401933987424994,A
10.230643591964132,-2.25756864026467,3.749874655955317,A
5.3068336811844175,0.8653893282291453,0.6124062537619211,A
5.704236872128142,-3.7119909195285623,5.2545030828295385,A
6.8984185727286444,-4.842877146374321,3.9918058624506245,A
7.927587356041264,-3.7877580820493293,6.593969008232509,A
9.014927859579274,-4.061910482301013,7.786937923096362,A
11.347574808950677,-5.3457736815575485,2.962128406120126,A
9.63378440860027,-5.462853507045476,1.1381331970697854,A
7.960952914624487,-4.953158513880105,1.1842698064824535,A
6.75641429026592,-1.4240708602006804,1.2366937279925605,A
9.060629159047414,-1.4583210954311858,1.757444520486203,A
11.051864154048843,-1.3536389584479895,1.363964128220788,A
9.455621295927786,-1.9642734384363285,1.6727835481944773,A
11.059370740594597,-3.568538584290468,2.3306395227325774,A
9.987103663055386,-3.60115583340218,4.329807451425674,A
6.80734684756518,-1.628913866432743,3.794343944328574,A
7.565358320986698,-0.1050169162037403,2.6469340648052104,A
8.62606083119828,-2.0999580160222955,3.2160931365215997,A
9.084480023520063,-3.5851293676686775,4.226997862589605,A
10.865550840698056,-4.2355780582654905,3.3983714357116286,A
10.995899343565753,-3.6817704825364594,3.025638205760199,A
13.694291586533055,-4.48239432288407,3.6537201305529585,A
9.419822056533802,-4.2384102130491765,1.5241564420338998,A
8.389127600613243,-2.670283191216398,2.469831996176493,A
7.118615577533657,-2.3791772938522215,1.8729940859025593,A
9.137048298758344,-1.8850728847954763,1.9268041976114691,A
11.777067940673422,-1.1983502649162292,0.8919540980710782,A
9.7681176908498,-0.5257348064794051,0.3963671220765732,A
8.584855683007552,-2.311346468059151,1.605587775969821,A
11.275463539629534,-3.368358746982159,2.054360972967689,A
8.113115771903383,-2.452930867618743,3.8949969377901463,A
6.453435759947083,-0.6903649955157234,3.04720342046552,A
7.888305137000585,-0.3193621843668478,2.679693084775997,A
8.869426089497434,-2.4945233320531632,3.8473880458632204,A
10.605768872696155,-4.700312407823051,4.537983311940768,A
11.389243043763443,-4.0710692445698475,3.998772712821373,A
11.323416599292976,-4.036797424928921,3.891283482417024,A
13.31171188426809,-5.132892055238078,3.264995165876166,A
10.312813475667696,-3.0057413456804998,2.057220224042252,A
9.682471818555351,-1.5901635400756438,2.405206559531445,A
9.144175880245157,-0.924592143973009,1.5929994151974718,A
10.092327466227722,-2.3605791634011455,1.3951972880471093,A
10.001861393214234,-1.582317116746142,0.6081665731122541,A
6.817182525838387,-0.40205521504116065,0.9116971455135432,A
8.301003939783799,-1.4705325004324117,0.8746933991676367,A
11.416670217360213,-2.8069215290324827,3.354067224045555,A
8.997047173591332,-4.041774647392128,4.231718468036189,A
10.437180679144868,-1.4534028940097865,2.0764626879413797,A
9.476445773562629,-0.5527687865737763,2.7123166360614213,A
9.09710337062074,-2.8743139226831955,3.892185816125945,A
9.791999024069426,-5.74880803003487,3.2656280960690385,A
14.807617915415651,-7.178342300379846,4.061468293058641,A
13.255681941419178,-4.4620762298650645,4.4002960737431325,A
15.073213652327244,-0.77165194513677,2.2422381607896864,A
10.26086511066279,-1.0312593910525485,1.753082120955293,A
8.625914907839617,-2.1983829509381945,1.7483049262323953,A
6.381446443312173,-2.780092484017543,0.8745164790463676,A
8.3817142652259,-1.6270935230098118,-0.18313481354849104,A
7.059812585187939,-1.1694760659412877,-0.6694369625312756,A
8.89112572863088,-2.072368141525481,0.3765234548561054,A
12.830466466304424,-5.448809612299036,3.2880495657283806,A
11.238671244333723,-4.953430992786711,3.50121718753601,A
8.00971381748832,0.9256731478572899,2.902885089919465,A
9.149796605773943,0.7631926332391171,3.67839362959924,A
9.629861192696234,-3.6877915342342016,4.269706760020816,A
10.523885392642738,-5.621178758325249,4.104637960120709,A
11.109180522419267,-5.1780335341938875,3.2162151457421384,A
12.125504502267193,-3.9220731882294046,3.9778080620120857,A
10.944806834517165,-3.3959594771083226,2.3576397736933483,A
10.524249560792931,-2.3158315290383067,1.818666041003082,A
8.705887398788404,-2.3472553189975494,1.7842607525731322,A
8.128429544294681,-1.7199088637283328,1.2866711942040463,A
8.689163144450168,-2.2787590943660163,0.8629913879672572,A
10.412135089400216,-1.5197914859693777,1.1023824360698615,A
7.892072980032083,-1.1837087241470414,1.2182249493802573,A
9.486443068993797,-2.5092089802104898,2.2407998157540345,A
9.510883161698164,-2.7764652713337097,2.461612940553487,A
9.923429821826204,-2.459238238932985,3.714011853908253,A
8.777200479506652,-2.477589835856726,3.635659327086974,A
8.054239067327346,-1.4702311016627574,2.9022782075325164,A
9.386134705566846,-2.5576400222506734,3.4551581342445155,A
11.438025702010307,-4.1464468000082695,4.092017444792939,A
9.839829107082867,-4.916003443605312,3.9164994510703446,A
13.483129924381618,-5.181136876938091,4.355654794867795,A
12.469282156430234,-3.7929785792255704,2.6369126443020976,A
10.101674926143547,-1.3711613691904385,2.602718917205542,A
8.597652751696685,-2.34348649580012,1.8162368831151736,A
8.232219504352964,-1.544876743682575,1.273810286346201,A
8.472146600097263,-2.584365202791311,1.1975848245418843,A
10.379909896501042,-1.2965689448537319,0.797085861301718,A
8.03583776312454,-0.8589977395196281,0.7844795204602698,A
9.98358894062128,-2.365269713149274,2.1745291360102668,A
11.489955623398775,-3.002765731739919,2.3081724113082394,A
8.309109454322401,-2.7409578204505056,3.7748658952195933,A
8.215570087264416,-1.729073858437471,3.367102093502467,A
8.313099430178216,-0.5696699088612284,3.2900503968612727,A
10.202912499206429,-2.7509374154553665,5.236357924322217,A
12.070709342191043,-4.378289765504817,4.774573318054198,A
9.044462585783554,-3.722934973102018,4.15436687165482,A
13.565645348209472,-3.3766947086586385,4.492419327595959,A
14.85926924154962,-3.5199613493381174,3.006501230792874,A
9.694580754084978,-1.864135005278022,2.1491367858011605,A
10.214914720788535,-3.14957643926659,1.810329266916465,A
9.261975266754558,-1.3951280857948887,1.1920687204530056,A
10.948412456508253,-1.4077694224937884,1.1208645308421408,A
8.171677404452877,0.040545843506032034,0.130263427658834,A
7.124848968047893,-1.5062580572549937,0.4166567657584249,A
9.14745410343537,-3.329097364849476,1.8881312860361874,A
10.783629099831193,-5.354223236636937,5.188702940013968,A
9.114369048761008,-1.7895947577524585,3.7227869359336645,A
9.491262105118585,2.3204481996615023,2.3474344234944735,A
10.907938192267883,-1.0376401552512575,5.840442320979982,A
11.12798435156105,-6.877101807628351,5.959386253211621,A
11.277440679262682,-5.299887276344003,4.278613222402703,A
11.036263848161724,-3.63246573896002,5.334760313488153,A
11.687811226334338,-4.332218964084839,3.4500771051264816,A
11.798601233460355,-1.7359135901994323,1.5888269583313213,A
10.337684987537797,-1.8262630593363256,1.6919317455752776,A
8.463071329128939,-2.2449352340273947,1.8765237141307118,A
8.481297111549269,-2.4379517990637565,1.1198330233353153,A
7.825281953265684,-1.501152902938328,0.3171095973025409,A
8.069103960719385,-1.1037289010400453,2.1694298834999937,A
6.111324995687873,-2.660739486659888,3.605726716284651,A
13.547395198217536,-1.3827368170058318,2.2486296684257865,A
10.564819705162208,-0.4407335215152488,3.750015768324612,A
7.860211982934216,-2.7097105104728723,3.2174556108840964,A
11.147012315593706,-1.3478416660687325,2.057505569849695,A
9.34814004372594,-1.6416651169260963,1.9039624529183978,A
10.335308463404608,-7.532916321058096,3.122257866448922,A
11.594113678594304,-10.108057625003719,1.631626866694897,A
13.0389769769385,-5.107976444881638,3.4827923965222944,A
13.204302661153314,-0.6904786428501806,2.1763999072794515,A
11.621382250155637,-2.1790792460791613,2.2608990862597813,A
10.756255603326686,-1.7819459070661736,2.271673036630704,A
10.255828175647643,-2.202078846653595,1.8666429450893514,A
8.953965658060573,-1.8506750246116217,0.571507560310246,A
8.639398062040604,-0.7322322332108612,1.017182218369809,A
5.0825192887131045,-0.35585185315544243,1.1877465357615489,A
9.634122924669208,-2.3658846118311736,1.3553263249216003,A
12.029721020084088,-2.8882745727037964,2.3442480883051386,A
10.489432388492704,-4.220582409484657,4.004842698614163,A
10.847871596865293,-1.9430891523343512,1.5055062834647777,A
10.404097454212462,-1.041020612330829,3.583068818227934,A
10.281692251473466,-4.00826561046793,5.433264198555563,A
10.844955386420986,-6.34058277177947,4.470792649014445,A
11.734304798917393,-3.5418049875306803,4.954245073786071,A
13.146438411482752,-3.3668404383438566,4.059070702445518,A
13.535031980456706,-2.343707052103549,2.1080816237122995,A
11.847019168284609,-1.717830198928908,1.9727377451532835,A
10.063775026791326,-1.5933507073864808,1.392906065370849,A
8.5503340282622,-2.178807656013506,0.7089837121212303,A
7.991449580866322,-1.2422192199721582,0.12658717471160782,A
6.48466983133029,-0.5942053892442533,0.4251032542334849,A
5.868018857341823,-1.7613321388824623,0.8513616353563777,A
11.347876324490471,-3.2711566699602956,2.1428048833396254,A
13.541904604612151,-4.352963838875872,2.947326875789475,A
10.471494851715216,-3.239331233032514,2.911398705074741,A
9.850359675674818,0.014448869135529993,2.5699474403064095,A
10.371340288606445,-2.425750919941546,6.168165062383779,A
11.176452043024511,-4.734442512828163,6.320099884299928,A
10.869905990595516,-4.285951278423279,5.065164759344546,A
11.858152969403628,-2.575016809766715,4.472571576473749,A
12.557780081840622,-3.612519883256846,2.9049724194597446,A
11.862189473507131,-2.66881513523019,1.421713570394678,A
9.753882998689535,-3.329201584367729,2.6049408969240413,A
9.707556161162563,-2.0709292025288963,2.028022639421809,A
9.471386975770686,-0.7004544456829258,1.1901910642191393,A
8.23380365670162,-0.0975891937422359,0.8313355654308344,A
7.945676477034009,-0.9905694313963077,0.9805969768987147,A
9.288282717600474,-3.0888786310557195,1.6810128061247196,A
10.387339337724029,-2.782730504133483,1.737166198079913,A
7.868734077166365,-2.745994526765326,3.5478650181709606,A
8.495794710995318,-1.3825065717860452,3.3055719521649944,A
9.502932503770127,-0.6361658359005257,6.461985999257106,A
13.23626996119529,-3.7535894450795597,9.668861401972906,A
10.974783506603186,-5.2419711480860505,6.60206421307302,A
10.774688003916268,1.1894361351376395,4.726540118822127,A
11.245969471374927,-2.7289518670187967,2.5699478770364244,A
9.57509643183099,-6.665001301808998,2.1718220848029923,A
9.279727372753085,-3.988753221771079,1.1302129090674602,A
8.49486477715822,-3.039139261153645,1.1955900858344222,A
8.341752372280212,-1.7074701621455963,1.3766880185208041,A
9.433577330289891,-1.0421823777827433,1.4553914428846062,A
10.300641641788193,0.14381618270289515,1.9854419997100827,A
8.248179354354724,0.6469102895399643,2.493869460199985,A
10.744569160558413,-3.24554819528232,3.680056697658995,A
10.53007111739244,-3.440731266747563,3.396722441507588,A
8.668391001531708,0.20023371577525084,3.2582902381564764,A
9.340500185295548,-1.2271239398373899,3.002093337062177,A
9.115276022191196,-3.2364445509659854,3.7269803308190603,A
9.451825301480913,-4.785546385922479,5.030716927269806,A
11.228481814166269,-4.96512652374545,3.235948093429691,A
13.471719730053008,-3.69973573555517,3.7487731040770216,A
11.055100744410225,-3.1359994770321946,3.01634982445504,A
10.687270649312596,-2.9836369038159294,2.783527942465657,A
10.915292479972457,-2.190903092147423,2.001486560436207,A
10.135807944465222,-1.092202049616916,1.3384275197873663,A
9.279561094822355,-1.4839383772306052,1.0910100297860044,A
9.725345901241164,-1.4342586786153941,1.200560246120044,A
6.871936186643698,-0.462694379821572,1.2915942250890424,A
8.456190475345219,-2.2756887630303875,1.7794476884095844,A
11.370319088008536,-4.337769334819345,3.195527573123512,A
10.267905354093834,-3.025707483217783,3.486227710420035,A
8.869903489413465,0.6006004552582451,2.089955703920332,A
9.581916271076548,-0.7499377822694258,2.391901986750063,A
9.711583470135693,-4.309934253401007,4.290436606657403,A
10.523626453007696,-6.707277905426482,4.526836325821327,A
9.764198469528452,-4.792647702440415,4.099744481937763,A
13.26065371474163,-3.477486915048801,4.46710878126061,A
12.602322033385514,-2.309532907589101,1.9413796578144618,A
10.293788954439545,-2.3590288521454243,2.42699514028903,A
9.294419451242566,-3.0380781575876004,2.1641593025182333,A
8.533526461665124,-2.269765125287674,1.4812612130867817,A
9.003412985003882,-1.8853178253336265,0.8793309670009224,A
10.010172750572599,-0.5732416248659805,1.0184705730394583,A
7.639720260561281,-0.11301327920014015,0.9801706562960126,A
10.354174134384179,-2.889313006361894,2.772427612405209,A
10.67836917468042,-2.87362730722118,2.854525494732636,A
9.177657508001346,-1.4392760350912237,4.052675794270121,A
8.969621033122325,-1.1177425168401693,3.0912532138502193,A
9.939896950313111,-1.8652549680436785,3.5511143365213034,A
9.769019539601873,-4.013221643302676,4.770193938123064,A
11.220316165692118,-5.292016096118896,3.9672638013869412,A
10.609425191313536,-4.289966847418461,3.7008139397657516,A
11.53559418793487,-3.7033378042027807,3.567294646831588,A
11.955867561134314,-3.5247209530831243,2.336050295277681,A
11.006669894976328,-2.6737388891728795,1.7133258878052198,A
8.514372103626853,-2.6533125558749706,1.3795505068829779,A
9.663100973484607,-2.2407398120625457,1.5671801063573378,A
10.33732960085172,-1.8110107254946008,1.2262219028909702,A
10.329272721888108,-0.30564289678655476,1.2528424346258442,A
7.077715140471653,0.20960128221760518,1.8339413812469194,A
9.023856780900356,-2.1339752199082302,2.3392473550085087,A
10.2965518339557,-2.2520403123816233,2.464412776192983,A
9.321778318380549,-2.1300839056899865,4.0719961720778,A
10.011239049004018,-2.076291762386668,2.92320983914558,A
9.71983856324197,-1.6372279191323553,3.5846384393938977,A
9.519202163873599,-3.3014597052260815,4.655271982182233,A
10.306147130381946,-4.8995870649426685,4.35546714875042,A
9.722439059883065,-3.3261931998706964,4.0931499435051455,A
13.168827328476462,-4.727774320761379,4.6230170486821285,A
13.223374696706541,-3.8683346279092277,2.4933262653457495,A
11.37169423572039,-1.5765099513912881,1.7128177588159659,A
10.062243964051897,-1.410690276287137,1.6454303100965888,A
8.984532266219558,-1.860391552878439,1.6566882693426728,A
9.793518653067315,-2.2626657511541817,0.8056086933688102,A
8.06514101384851,-0.3495258595507149,0.7424903511674549,A
6.29181485008953,-1.3999703963072667,1.1247042254351471,A
10.525293538801325,-2.6199946079627683,2.679941370069265,A
10.306302523606842,-2.9623638887806227,3.8844091940558148,A
10.171971066128496,-2.919732964098201,3.564643887265839,A
10.115979899713611,-1.2357498998977818,2.4065751506131927,A
10.253517867369967,-1.3536386045097046,4.814780440282383,A
10.221815467449188,-4.070816139469226,4.887931696268918,A
10.839512562527633,-3.78726649720143,4.14868609266535,A
9.849512081676615,-2.7145914507181867,3.795278845400486,A
12.369623794858065,-4.191116711699428,4.165344075963108,A
10.334131568597888,-3.0763092790249082,2.3836917363574006,A
10.67309925614802,-1.9236121543056368,1.8812097553947364,A
9.177903934930601,-1.9365187477353065,1.2293679226330814,A
7.826310453705085,-1.3600765620597237,1.6564205675969792,A
8.198860850839543,-2.247844066839581,0.9119738461888208,A
8.165920587852467,-1.4496543529686587,1.2385593144453688,A
9.284313697164361,-1.5959804976280865,1.3850551067036951,A
12.503404921118602,-2.8390346311457773,3.3766097375444204,A
8.04354367346801,-3.4444198991625607,4.780458194466286,A
8.578894383794296,-0.5861256324165219,3.1102817963511917,A
9.745018916926984,0.13306045715554507,1.8885101785829712,A
9.56383375183997,-2.0502465228609577,4.1790610817111205,A
9.409693264659447,-4.897438220244667,4.138768556799176,A
9.76263419334817,-3.614183932385126,3.648457545167957,A
12.089650711303216,-2.6132144797048014,3.959152640095765,A
11.033768937919298,-3.667679217093877,4.043727778616489,A
10.625535607576097,-2.981665502188062,2.165677624454658,A
9.462137655587403,-2.0487905798245745,2.0116576101474486,A
8.430403144171427,-1.8876620226895402,1.659439820284236,A
7.872845095135805,-2.1634277521661094,1.7704736802509693,A
9.98683446422247,-2.263012292026733,0.8983941517104456,A
9.141397325671177,-0.7384981919812577,1.2057601803595785,A
9.25789943098309,-1.9984153445850923,1.4249739521266265,A
10.750659594221627,-2.7222857306306194,2.3975792697047282,A
8.5116906724288,-3.035336112524302,3.5657553941531583,A
7.530879015096513,-1.5524351080617942,3.348989515156635,A
8.258965467654184,-0.4228787337493229,2.100659615820651,A
8.59258020871968,-1.9410861967496247,3.6784659353968148,A
10.821348227702394,-4.698972001880686,4.340607027626835,A
9.977574828887583,-3.6280948918845235,3.834416054914099,A
12.691087061638278,-2.6441078394419266,3.7684540357683987,A
12.610549339740352,-4.058489098013138,2.810391693618879,A
10.556657014844776,-2.8070913741543,1.709059207778953,A
9.357109752154072,-2.2306679928781743,1.954143514021697,A
8.00895662957439,-1.6034092036217444,1.2782048740576422,A
9.09793585646254,-2.1615935351755917,1.3963640423922772,A
9.659940445872165,-1.5215208388471593,0.12674113900117398,A
8.420549054619224,-1.3251706147574038,1.156219358054131,A
9.590637528150504,-3.2588562489785136,1.5383754618660876,A
11.381559637277888,-2.610687771378689,3.4294717784873563,A
6.6056737518458775,-2.267483717087013,3.0267980115719695,A
9.271856906632548,2.1614575795365396,3.4732409031994425,A
9.534277063358072,-2.772967129306477,1.5622417735130203,A
9.506500567087471,-7.673246585073028,2.6809971358039313,A
10.093790096204685,-5.257880854371169,3.085194627299872,A
12.97640052093708,-4.56650007020568,3.2438177324610034,A
11.986311863384623,-2.4738235042851984,2.898739877128975,A
12.17012241114324,-2.5490418379990327,1.6962343777260498,A
9.547736129898865,-2.5058670456814878,1.899402071663126,A
8.267905409709758,-2.891794044506126,1.8591229547002026,A
8.862007606642335,-2.5465052286007896,1.4624040923553843,A
10.57045717403214,-1.6438484368583879,0.3507591419341352,A
8.989063030035883,0.8672247688493088,0.015562553229070337,A
7.209297423673809,-1.5126467975887776,1.4572507715658718,A
11.100139063198563,-2.7527816181492613,0.8436736727417172,A
10.791509933143736,-4.4720167184268895,4.852298048727183,A
7.07410683088419,-3.0390212789074385,4.135240527576356,A
8.530779608583336,1.7646398505099468,1.0673397877819601,A
9.53465835815306,-0.13850022995957242,4.079829877933569,A
10.320140058844103,-5.753894514832205,5.664867921550124,A
11.769404448193526,-6.162163391658626,4.328505825346666,A
12.944129869030778,-2.621962535926878,3.7803461626964516,A
11.477433497789423,-1.7665670982094472,3.0572542065195667,A
12.138317198282419,-2.3912921178286988,1.818005230588593,A
8.323345789995926,-2.0672627868382984,2.036722605027108,A
7.66076238273371,-2.188152511687276,1.4186362768003402,A
8.501751222827693,-2.793346403228556,0.3938254616201365,A
8.95758782592066,-1.2355390706609348,0.06237924813146181,A
8.27437482471548,-1.3316617621646423,0.9733842147424648,A
10.012503267610148,-1.957908586960305,1.1285380220533663,A
11.712673386791566,-2.5826611875871475,1.7791774279984236,A
9.227239196675589,-3.777789874034268,4.030187266231605,A
8.645456741344718,-1.6191457921322254,3.4390627985593087,A
9.171180272291405,-0.029782515114501765,2.0864987252488194,A
9.880159024311192,-2.1297769791449355,4.502123270296845,A
9.796874560117955,-6.762332244604382,7.395888195260949,A
12.743473497859911,-2.94295159376429,5.3268551692407495,A
12.205628394151239,0.1294058447621012,4.898393260478681,A
13.89135210499592,-2.855248718222724,3.8876698510639858,A
11.605848733237954,-2.7467028039867083,1.8582365169211834,A
11.065045980114371,-3.0695326259737277,0.8909420274873776,A
9.000906437343813,-2.632215412520695,-0.23946222469061187,A
9.689183302077755,-2.5513352562248865,-0.704656592618606,A
8.59783512123905,-0.3119817060811445,-1.2435033415957384,A
6.433340537907539,0.26878996595435284,1.0067970823858945,A
7.932684038960177,-2.9704034601915374,2.2470869252610512,A
13.138494806905252,-1.9621789506010991,2.5382900134968067,A
12.704131948225367,0.7060734827328098,3.7570014465510138,A
10.795932752949861,-1.2169360731094256,4.681739626434361,A
9.937255555053405,-2.8769261287490226,2.6409077306460227,A
9.9588946695161,-4.210795521243443,3.574282489285854,A
9.897027368687692,-6.411731457081257,4.454867314954798,A
10.514433944278373,-5.615665916830074,3.558704707650057,A
11.604042826374966,-3.0753978092790626,3.832743146681339,A
14.652518392374388,-2.8706395831499316,2.8598513527510367,A
11.248249449982007,-2.0317999651132186,2.230797637930622,A
10.956192531095033,-1.5883707033849577,1.93152927411111,A
9.679249569786247,-2.223713788455927,0.9164260868528461,A
9.677224781232903,-2.032332192927943,0.879819520088573,A
8.960365523925784,-0.9038537184697495,0.19933151228012383,A
7.066148064348042,-0.08703218525307078,0.48070779655601137,A
7.648167304794858,-1.8594769903633794,1.1106357655727923,A
13.596774569891588,-2.12565183913982,0.07599257212749606,A
8.567571601312682,-4.963793347699114,4.609637330799119,A
12.730534708151067,-5.43231268348594,2.705907664811108,A
10.484868732063653,-0.7837024405160213,2.4760649668312653,A
9.029719724912573,0.4625124047258473,7.206479729628628,A
10.822723467380614,-4.146859694502804,5.505464275297737,A
12.405444895840363,-3.271841369569419,5.281239408899722,A
12.410379736877207,-3.9484234826638307,4.022468051767881,A
12.223532365014137,-3.603724403591445,2.477108749962957,A
11.880456141670997,-2.1059369192764144,1.6042657307883132,A
10.890914487280552,-1.6998211336616897,1.1361096438488356,A
9.032878827458859,-1.9847890547982847,1.0403641198462876,A
9.317270981754884,-1.5871721104975445,1.021873954532518,A
7.443591743699845,-0.16762665610791394,-0.08636856763275966,A
7.051223596053674,-0.9621156157613072,1.1191158580292049,A
7.908275350456812,-4.545423494808848,1.5083749215610998,A
11.229053312323972,-2.2530945187535085,3.149041059817112,A
9.965838303479238,0.8418620674978959,3.6952820842319585,A
11.098299993690958,-0.13508008760996046,2.5591371863320798,A
10.384109843546687,-2.7612099584442973,3.41139678129626,A
10.815959657230612,-3.9908568932973267,6.928545531689782,A
10.150324396726226,-3.7952844099050007,5.904306924174273,A
12.517951551189643,-1.5412973718420593,6.731758012262439,A
12.558335997910783,-3.0510139613069707,4.665586140200715,A
11.460266626981829,-2.706125169668771,2.347667772617453,A
11.088062787979974,-2.4137686715293896,1.630164427852144,A
9.981405234501,-2.600758446772304,1.0670958609855437,A
8.603033026544516,-2.449929476485101,0.5914554633547929,A
9.55807732960871,-2.2712877662905524,0.05123623298601822,A
8.097747132411047,-0.7725068051334992,-0.030620602060452196,A
7.541205194153566,-1.3442251220490802,1.186763949286324,A
10.408767419427832,-3.2844331620986438,1.5000343810023962,A
10.199455681679087,-2.989901744895818,3.7117282917257697,A
7.939694855374085,-2.3469349687465932,4.348379654654667,A
10.079380206943819,-0.19882922354595944,4.136651726602401,A
8.531287334484471,-0.8497026611322414,5.947678260405857,A
11.198923659288882,-3.194591598308774,5.140956932533328,A
10.62512518287069,-3.743096539101138,3.6692846374500037,A
11.724308266951068,-3.018661886115205,3.8991496316814587,A
13.475737689693643,-4.882159668365832,2.800365325753822,A
10.11947137132992,-3.3969905474435906,1.7846486365050087,A
10.138345703067062,-2.1134986002920124,1.4887416652047891,A
9.345435156446955,-1.8249034638707649,1.4086299829218696,A
8.017851347040262,-1.8317107303741165,1.6046239431636786,A
8.500880584217803,-1.9646202369552281,0.782058432907545,A
8.590177264988046,-0.8816144007759821,0.5236142007391917,A
8.709887222051632,-2.1043956894386557,1.2755446284833196,A
11.689611381972485,-3.2739026874415234,1.8469344932983756,A
9.655664257535733,-3.1828846962645,3.8223029048792108,A
8.953544003660882,-1.973045803350923,3.1930423230290317,A
8.750813830213584,0.16921797368113314,2.010390719019752,A
8.51865729299311,-2.1228384504619906,3.321717080649151,A
9.817768399774973,-4.792844425719318,3.935548476015189,A
11.24075528684008,-5.577919398797748,3.1249641118260545,A
11.213802131495433,-2.7504125140378224,3.9912454144376612,A
12.147844731160163,-3.882961505060159,3.88428733368715,A
10.2056824203635,-3.238214789554225,1.968621799450762,A
11.148821154069514,-2.0463638557545347,2.2206621326663143,A
9.146869476908039,-1.3785878744820943,1.6405149511577481,A
9.08139389837447,-1.9088953685596572,1.3857505446153813,A
9.573720630149777,-2.400074561803237,0.24478618614742317,A
9.332334910167505,-1.4775866873082752,1.0389042720603905,A
8.314063267657922,-2.323566057846955,2.55716648703693,A
10.761404982044192,-1.841270807405065,0.9867181417584728,A
7.344778670112158,-1.8164660384750324,2.401903372890169,A
9.18052662552398,-3.3831703558301442,3.061032064823472,A
8.794938716651137,-1.8333159387036873,1.9536223724474888,A
9.197721321679705,-1.149667261948027,3.3599455799725386,A
10.786164364597656,-4.312709067334295,3.991849500962472,A
12.000407797642257,-4.531675281254723,3.5368923788602005,A
10.655745661120724,-3.035101216033722,3.926790675072871,A
12.024472453294461,-3.8988844684591024,3.227565704823462,A
9.970955621667503,-3.581265653365083,2.1685801775520073,A
10.41384907774404,-2.482850276529484,1.8066706362038223,A
9.115194781862185,-2.2402686943510286,1.556637194582371,A
10.532763612117828,-1.6747733309500639,1.1513730590055717,A
10.414894946463127,-1.2345738557734836,0.5140097069256488,A
9.118278307343095,-0.8239552875214424,-0.1815692342076395,A
7.6203236875565725,-2.6869510562836125,0.9573493139305234,A
9.233675899676356,-3.7497535022150594,1.6871298020670573,A
9.083402102039434,-3.5368928500710433,5.969416521625586,A
8.433380558599596,3.8414040252904105,6.410461391918012,A
8.743059333180856,-0.9316086324570003,1.6235226862211372,A
9.069320642773631,-5.820183062484563,2.490135898621944,A
9.773561441855986,-5.963263382315617,1.8990548682294233,A
11.429503782883021,-5.969784640329297,2.0538499373217567,A
12.496073243977072,-4.309760911139843,1.8292103750858026,A
10.57446314371785,-3.229518640854616,2.755146563287214,A
9.634920856490087,-3.1676645370631884,2.0008958633872895,A
8.634493566860877,-2.6768245515288953,2.1851544149235176,A
8.772745127577037,-2.1445645433546736,2.0158584536779207,A
9.925021556773682,-1.9542943885718118,1.7640331391610076,A
10.686857131568049,-1.0700578265791247,0.9008204368835087,A
9.422253008377375,-0.9650818583398156,1.2236102714964048,A
9.123627987288776,-1.8843569418067525,1.6632163895767922,A
9.986745083792487,-2.4887421354142156,2.55073851124183,A
8.201633065182614,-2.6897420364537834,3.574656039319895,A
8.180083077983639,-1.6818401597375798,3.1801329843974253,A
7.119790235316263,-0.40663709018466787,2.0150614269256586,A
8.629356682718479,-2.2523550335856846,3.166606122961283,A
8.74504810002482,-4.410737474034663,3.7812212869863155,A
11.563656408815532,-4.103175392084749,4.122955312293093,A
14.596391704650316,-3.7050290152657035,3.61717408539106,A
12.184400791322696,-3.042606021565346,3.950421629197116,A
11.080514205090573,-2.3751363998153763,2.5874003329405073,A
8.74696564282489,-1.7120519973890749,2.2050214012858738,A
6.92076532510632,-1.6485247948489155,1.8927580568495217,A
8.84185226673791,-2.627934922250459,1.2720566716151955,A
8.679670043653422,-1.18813016011924,0.5413370586481967,A
8.36791425962066,-1.1010388847020605,0.7699737636818786,A
6.88674726518877,-2.4196616798005235,2.2917322208180955,A
11.317966731874257,-2.489294227112044,1.8715858715520044,A
12.160952376815928,-2.652097088314292,3.8352913140116067,A
8.267718464940868,-3.2026078010392163,4.210362275111339,A
8.66467055800494,-1.237860094985428,2.696268789800594,A
8.523141673567713,-1.3472283579115376,4.1561414557167184,A
10.07460642972858,-4.338844773384378,5.112959184575498,A
11.204994366312015,-4.948190984781981,4.48158697372246,A
11.828905644347444,-3.0599505668571965,3.2404661860095354,A
12.506604310210836,-2.8181617148610174,2.5326720320675147,A
12.322031819376805,-2.7879781577978564,1.6309316212217693,A
8.171658416182947,-2.556976133105724,1.309566363783158,A
8.18530548982531,-1.8703624908437704,1.631352366706889,A
8.11368499594728,-2.4226709587833692,0.9740447193183901,A
8.308588441147874,-1.6537580232467726,0.777698033113885,A
8.039063210700713,-0.6818573881882322,1.1407253875075758,A
11.424137880952523,-2.8419318869914947,1.7910223094449833,A
10.367587355930118,-3.899091673494985,3.865530287936053,A
9.207070342586311,-1.8160294382533841,3.4598473189061565,A
7.6384626621687675,0.43693721738363434,2.484855584563717,A
9.009468728642949,-2.1807979761412684,2.6411705657316413,A
9.005970178254705,-3.9832504968423272,3.9944438416931307,A
11.33471209816324,-5.236545882808251,4.011665481160683,A
11.118286930067969,-3.9477850031555506,3.9348211650753466,A
13.43509617131867,-3.163736511105725,3.9178074919455734,A
10.285541720511503,-3.135372331211396,2.5029266116488085,A
10.509037920727478,-2.6519122775768924,2.089395671529623,A
8.297164911147126,-2.2856444936274665,1.7841367110145896,A
8.367857674754678,-2.089551913319661,1.7387223023095304,A
8.460870906777913,-2.4201687595110846,1.0318707404815466,A
9.412174349423232,-0.8426988283130381,0.36233614774828593,A
7.670488986383181,-0.8199859614241227,-0.12617166168503294,A
11.555190328643668,-2.8773440710251057,0.018770413197590353,A
9.48438088446626,-5.371646348335661,2.9824617338359447,A
9.230252530843321,-4.965230705344092,3.642063134800715,A
8.415803611097187,1.0907720953460116,2.008542449952762,A
9.368968791025749,1.379627072923339,4.4437421537032495,A
8.08718197384446,-4.410559357623245,4.282681990478027,A
9.945932172544783,-4.430540343631041,3.628618014728831,A
11.396702272954332,-3.5013715141116117,2.897673363809462,A
11.87317717547048,-2.230606437124499,3.785624116826403,A
11.187837929158274,-4.2369661674188706,3.4951885347075384,A
9.082282270368879,-2.5156070190603392,1.5778304029275507,A
9.557473468624734,-1.8327848202265304,1.767272727724108,A
7.763121070483094,-1.878309879528676,1.3834889590446628,A
7.55814600742232,-2.2958324046119087,1.450492845646041,A
9.001948829598968,-2.34958007926822,0.37653328033538996,A
10.251509451765646,-1.3485640679424695,1.0669243584744679,A
8.56175435698486,-2.2082145569036684,1.46334683991775,A
12.18217396161048,-2.904738989163269,1.9970169345128508,A
9.370967468487878,-3.353605359128155,4.0522287994076125,A
7.568744647983429,-3.264045646756685,3.517200829254241,A
8.35612016412765,-1.1992010421554997,2.711063209205089,A
8.38709332446058,-2.6237380895508244,3.3864285255277156,A
10.305702391045758,-2.4724735679569427,3.5748327604991967,A
11.730672680598287,-4.31616364022815,3.113908987455075,A
13.26946806396043,-3.3351613001551956,4.128629897561463,A
11.323249111263072,-6.306084206779474,3.3111216023920726,A
14.2899727866729,-2.8085708788554085,2.0201973795171546,A
10.71669104280383,1.4835438363874243,2.284920144667619,A
6.558900484397674,-1.2115671359954463,1.7763311661019294,A
5.706006690052533,-4.385031220504394,0.7730329772001484,A
6.71138142815639,-2.417625818630007,0.8173127202496165,A
6.152839794357602,-0.920513879412884,0.7812731886280144,A
9.306663784046494,-2.0935071418206452,1.3290173195684667,A
13.353217504926176,-3.2183162740790907,2.2444778048087732,A
12.283811986871704,-3.560208611124603,3.381439028416847,A
10.27778737263398,-1.8630343594569696,2.4435171835475,A
9.245984612587767,-0.4283459565458486,3.494244822092595,A
8.868227292457098,-4.2782872395723865,6.4112422612994955,A
11.728522814482979,-6.362360189209952,6.171050652549376,A
11.393013819808296,-2.623516183275979,4.465912179256099,A
13.379607901752985,-0.8110958120159992,4.681648430005322,A
12.461562869603796,-4.812708621041963,3.0611622423542024,A
9.925748548109194,-2.608916455416742,1.5845950569949958,A
10.483454623495048,-2.6190848806348432,1.1830709253000629,A
7.735341305648679,-1.8386587993292811,0.7640104247450186,A
8.5293754834995,-2.085224333551416,1.101292913636051,A
8.295076813376411,-1.5456226161325661,0.5360216813860602,A
8.329023046110981,-1.0188418171860454,1.1466465880452021,A
8.90226551165225,-2.1437917849742023,1.7926101166324806,A
11.370668720982358,-3.1217559061778655,2.6435654478704596,A
10.158142017018863,-2.5269406900500733,4.02466949275419,A
10.295450883368702,-2.9075707506083175,3.3737997368525736,A
9.250370497411437,-2.3205608508224325,3.1956988514335487,A
8.912606111489842,-2.834912211376017,3.4375209811902807,A
9.885996552849468,-4.131557394585699,3.4547610297298372,A
11.689436848287556,-4.380034079067855,3.158017251099251,A
11.064428158402416,-3.613894587482819,3.639319737091419,A
11.77147144067235,-3.988155353318158,2.8748164108212118,A
10.048729039376155,-2.113828160416389,2.0066405157640754,A
9.20352679328714,-2.2767555277886746,1.7744274219910139,A
7.9659491114904775,-1.5072736074447153,1.1504642405279593,A
7.958322623905291,-2.067700657117617,1.2607600073805016,A
8.0023146477917,-2.1838344958245854,0.7403116319558073,A
9.14587526606726,-1.813608891189448,1.3193931185078844,A
11.542163452980772,-2.0629004801756166,1.257991688024098,A
11.213027260119274,-4.220145674920904,4.154421322989722,A
8.1146267922742,-3.443048218142044,3.7246162589781755,A
8.661238427533965,0.35955811228399726,2.528970347336365,A
7.8634277777659936,-0.64533550875253,3.0882974760771806,A
8.293347340184296,-3.576609420520775,4.434754591492079,A
9.150079684436058,-4.559982694137142,3.587239524783734,A
12.545234409346776,-3.2619267182503564,3.651671743441474,A
13.102607115494028,-3.18536215562594,3.3312628156697346,A
9.99485518995833,-2.957444814955014,2.240016575780082,A
10.125848439071964,-2.217638180144403,1.661746412005065,A
7.667345739452734,-2.408845099135849,1.6351973522618923,A
8.240672273275537,-1.6581810777364092,1.4608472054113506,A
7.617854269705905,-2.700846849266799,1.1003058285948488,A
9.57967996233861,-1.6630541549100357,0.9218483492637506,A
7.943568337331614,-1.6075853125679378,1.8640112461861684,A
11.367487837790593,-2.1047823721981858,1.3855331406055404,A
12.117166532585818,-3.427850923547577,3.6808032920057965,A
6.826406167591049,-2.8370633664540934,4.673654353889299,A
8.399907158479532,-0.817080041988739,2.4918447713939083,A
7.863382069776488,-0.2069705498234704,2.396081188798613,A
8.261211961679253,-3.5979751086643392,4.248500400722434,A
10.086301760200381,-5.313700008177624,4.045368968094216,A
10.892166877644627,-4.110793041944531,3.356336781049111,A
11.345347874520776,-2.4367321630755603,3.210590984434232,A
12.14502292244626,-3.2857972423377277,3.251785039913745,A
10.624006595148925,-3.120276724984861,2.0809249963328393,A
8.429471077147392,-2.760452715115204,1.9143614264657598,A
7.378728042379747,-2.158530691167586,1.6397571120298178,A
7.722269810314548,-2.3330345589533503,1.3236150722241058,A
9.723275566597543,-1.4475083662021975,0.4361782981938733,A
9.543439084285463,-0.7466252286879782,0.8655894783768556,A
9.97239702956564,-2.866423886749807,1.3377972434153353,A
12.446521186816518,-4.099332345389,2.7165063728580137,A
6.73200400654121,-2.2041519985482028,4.223844905380995,A
7.893129425747656,-0.8297401323646465,3.14859639300113,A
7.9391070858822435,-0.43614893462125315,2.4115088826269204,A
8.41220109942885,-2.5002334479658366,4.155326143736861,A
8.860273750493665,-3.929856763531674,4.477658314290226,A
12.143508614194307,-3.6336947154115693,3.6891121671672047,A
11.021529242012,-2.841326950271323,3.6404587362689025,A
13.308319400569971,-3.3874411824213,3.909501427040171,A
10.357907728056624,-2.9844799131148516,1.540429455739936,A
9.954767422721764,-2.3188790258212375,2.031625705651379,A
8.321972912289127,-2.058836203575017,1.5843517528193427,A
9.785380827269279,-1.9857341366618007,1.3243480741353593,A
10.324285690689914,-1.3182774792878083,0.04383318084962429,A
8.603125896811868,-0.7462078816788423,0.7020532978029002,A
9.875501610563225,-1.837597620884722,1.3930678812779294,A
8.566446736378335,-3.296129485973692,4.23902162147284,A
8.009542163727644,-2.187658540433197,4.949175972258596,A
9.947457011208531,1.2574800952867566,3.428288845930692,A
8.679327353690718,-0.9049319142562595,3.790860871749692,A
9.397225787414323,-4.689777195052436,3.6121690534688895,A
11.045418894301232,-5.3734762752667296,2.8964842525579115,A
12.380742365518214,-3.352692923592774,3.0643659821620326,A
13.538777399123072,-3.3555577135852275,2.9716369176579285,A
8.067816285339035,-4.120576088162696,3.359844460683074,A
9.287480406843862,-3.552775576829821,2.1151863876187753,A
10.803047373514387,-1.5644731463263404,1.9759664183337944,A
7.172428992847732,-0.7293365420001314,2.1305769336011227,A
7.573248354212274,-1.7529618319879388,1.810046394673372,A
5.862636597555632,-1.7006075333446156,1.0234986145905363,A
6.419773503139725,-1.6189444392963168,1.6127933051124044,A
8.740544319526604,-1.954173672362532,1.1778717383220554,A
14.624697454022703,-3.396106138679606,3.258766487350132,A
9.6800954360147,-4.083557149145289,4.682026736182158,A
10.580732746198128,-0.5677185658339589,3.3318962360030433,A
6.617494087625672,0.4836212205691454,2.6030962742729775,A
8.035178115426795,-2.2945607010813527,3.2348865414824255,A
7.310488691317547,-4.754019727259286,4.0723379454316575,A
8.70227667169152,-4.127679794272388,4.311966286217901,A
12.283054168198623,-2.3377342694705283,3.2347655736973415,A
13.305420417739109,-2.0905322475819648,3.71226151668656,A
10.456805251884612,-3.1521748982350903,2.325764062390643,A
11.85617127067568,-2.4046497913331026,1.5620237516283728,A
7.384243985322431,-2.2711380202952434,1.7156199680188804,A
6.951299917402571,-1.5902831885783197,1.759776561779589,A
5.866294575534211,-2.4981651259223328,1.0625693495656827,A
7.93723030162702,-0.6730518936135935,0.7069171461883688,A
6.710417426941003,-2.5267842351846124,0.8862452875750609,A
15.319735565415426,-3.222369141948283,1.5645159708313938,A
13.982245520412523,-4.535922054752348,5.70753075467158,A
6.697255928350218,-3.0667053876458805,5.1035912654640505,A
8.103858010632791,0.3425078633563717,1.975289173069738,A
7.71888729841284,-1.3671761404701275,2.4969239441508915,A
8.423039195314814,-3.716789607207263,4.660579589180166,A
8.718048711329521,-4.883931251251529,3.884500289353816,A
13.434644837974663,-3.4977614005152207,2.426648341554932,A
11.085474427253695,-2.347617113585572,2.8304202388944515,A
10.596649028951568,-2.6081247713032183,2.207582987844279,A
9.377290403646633,-2.7633921423256855,1.4768422084497668,A
6.953937963442801,-1.8897428098568267,1.752950209567198,A
6.674432074938143,-2.4331698230940653,1.2349325867087177,A
8.026851863568014,-2.594653678893115,0.9480790307065212,A
11.107186877595073,-1.772785160357242,0.8693380475565168,A
10.78978898411917,-1.5583026071256159,1.7388481624483085,A
12.548474111551425,-3.7008347904457617,1.9992052260020874,A
7.639078980885531,-2.8653733847972074,3.9327152928706433,A
7.732021609018408,-1.6977181622249913,2.9675111518702253,A
7.13661328647111,0.6224431584840053,1.5334138826878583,A
7.513018737514681,-2.775002692955634,2.307870525025595,A
8.363822407622044,-4.491716430976521,3.4798387329997413,A
10.277427701408422,-4.915622935115332,3.1750023488850196,A
13.030151656438077,-3.1781680925061604,3.4865878332653626,A
13.131118849114566,-3.180018804820935,3.7306045124239553,A
8.647528404619706,-3.013406867904104,2.0729632345015174,A
10.325691665800639,-2.5825066730070816,2.030813545305175,A
7.420471669966765,-2.4796296162206475,2.140797209933383,A
8.092743026687828,-2.6181346558960423,1.68724291831621,A
8.88145614624986,-2.4434125945097263,0.7550581720092823,A
10.879183668019316,-1.0636586666495897,0.7329943370004135,A
8.409460562500769,-1.6698061988822486,1.3536500035033499,A
10.955461811954237,-3.078097095237492,1.8559447683953465,A
9.296614627831323,-2.8024663975044275,3.0636499235926817,A
7.299450779910659,-1.1036858513510845,3.4003153809599365,A
8.43522324012122,-1.0730166993457515,2.3689720283350097,A
7.641404750071327,-1.9460261048530452,2.245464199667142,A
9.26375097442438,-3.745954760213655,4.3167661276243425,A
11.838045371996651,-4.156865234379655,3.019411760264301,A
13.925271295405526,-2.6177021309504322,3.2775131802221456,A
12.237622370974242,-3.7293886869359585,4.209839028739037,A
8.683774640452768,-3.12671261403289,2.348306655419481,A
9.701524273589168,-1.7344990302811238,1.9266665366163584,A
7.2120240841930485,-1.3677238106711886,1.863899519463023,A
8.215341561551162,-2.476167866730506,1.4940954539668634,A
9.776019582657286,-2.3997336855280014,0.45340667717434746,A
9.361961784764137,-1.2098264885429615,0.5127265579348382,A
9.792110753057711,-2.079590306747535,0.6812285815256206,A
11.291747261238152,-3.3850844429545677,1.973930340223078,A
7.534884842584813,-3.620434123672503,3.5395479966666694,A
9.222371489701036,-1.564403876461339,2.1023836224690466,A
7.600278080150831,0.4564464008368158,2.0746851996575257,A
8.620722480310151,-1.669164847583717,3.1005973618043914,A
8.195027635435137,-3.8803601959432257,4.098606676278117,A
11.54215351032881,-4.362132334112229,3.443284448312738,A
12.39193532826681,-2.5400022639144897,3.647929790259692,A
12.37494500317031,-2.7465945187076173,3.9982319854482045,A
9.626657277539687,-2.90922467058318,1.9984555323642266,A
10.349293829581157,-2.8230007407584665,1.8920276188368075,A
7.841619641805986,-2.886138937586489,1.714586980627069,A
9.141398238869618,-1.5572007784349262,1.1809268190428217,A
8.869621982793719,-1.5499904474283275,0.7815290953330692,A
9.150345807142115,-0.8130802265338613,0.49013233070373863,A
8.239643894040238,-1.6361899226334238,0.6079190474865526,A
10.866100951437325,-3.3770859815278564,1.3663431341630363,A
10.339290167328334,-3.2605638918075117,2.0222701205729425,A
7.917723286838144,-4.359107045479758,4.027109015452653,A
8.038682947490134,0.5984129768238796,4.089244108112849,A
8.493971248163337,-3.320354148561538,2.410869484187298,A
8.814575990912678,-4.4492948490925475,3.193174159191903,A
9.214447319519763,-3.220162146871845,2.7793888421807877,A
13.844509436740541,-2.588630682815019,3.8424950603703203,A
13.982969370579893,-0.5630626868237659,3.5732964570126615,A
10.05594699755666,-2.5228999004103505,1.2333540007230246,A
9.059324042356506,-2.7654273730806374,1.2206858256750615,A
4.888417014519228,-3.114668391390576,1.455262746380476,A
8.868763244401952,-2.5018656347824066,1.9984650104252832,A
8.664724455915907,-1.548348992959018,0.21980319317056365,A
9.822978820994072,-0.3302811436760383,0.15660779301622552,A
9.011860434581463,-2.4193968364155682,0.7934397094377994,A
12.058839486887223,-4.235462478075081,1.3970308941091747,A
8.511257791872945,-5.4261186623578865,3.54196163082832,A
8.293289257335173,-1.8547659724186325,2.8650365126127775,A
7.969278040638468,1.1359649745130378,2.2240303509889094,A
7.880573078618117,-0.8263409164932576,3.0579586318178227,A
8.25238515789389,-4.641251216504469,5.004617750209284,A
9.876104943959852,-4.738468233628573,3.864981597428958,A
11.865929673152577,-2.011959649109169,3.6498249804114566,A
14.110971137263688,-1.9512404361489584,3.8514204343803686,A
10.609933065114644,-2.5340702812979923,1.871033915150616,A
10.191816600787847,-2.943273118567615,1.7244622540641519,A
7.122424693423951,-2.404414038481124,1.3261221542729473,A
7.80190172131442,-2.6028141170245007,1.2774491285767078,A
8.177865249697579,-2.505256163549623,0.3584016096266634,A
9.256661898136361,-0.8003513325705701,0.6769261056768565,A
7.7051023695456085,-2.041300267481662,0.996983256671018,A
12.553510195751892,-3.4829824865076358,1.6030563460666851,A
9.023035319890559,-3.1110305951900092,3.381167461808813,A
7.964689189933267,-1.826177056396877,4.0261606461086945,A
7.772947843426813,-0.6910104244324414,2.1874732895007436,A
8.43754088163542,-1.3777993376063844,3.5508027877352184,A
9.341248881014529,-4.1210000505735565,4.400477171483176,A
12.186551720762356,-5.094694157925721,4.399003102291801,A
13.23027669744797,-4.168352983589042,3.1247754376559898,A
13.337243969603506,-2.3627519432370976,3.2167783349557997,A
11.582833235717375,-2.911605834994818,1.9870789608585113,A
8.11408479129087,-2.3939342978663007,2.384440429988167,A
6.799951887456469,-2.7353303104122677,1.5644842219222332,A
9.09321121078038,-2.3867286280228805,1.6983025248874377,A
10.390142204328557,-1.0550611944400352,0.6351076642325104,A
9.263292791365247,0.09436724403471615,-0.09160018605478869,A
8.962739937499233,-2.304544079289299,0.87416126186427,A
10.122806935507374,-3.786551222572895,1.86507168617003,A
8.604736020828332,-3.786869014481182,3.7270750759629503,A
7.596795187104907,-1.3687357345740785,3.5952440304033133,A
8.435609318986918,0.7518088043988151,1.9935219504926522,A
8.953817370864027,-2.0529884183963385,6.002622194699403,A
11.158362119477223,-6.896616757850946,6.73182948988281,A
11.833627782044331,-2.9940070434329193,5.203006532367596,A
14.356926361038584,-2.082050190673084,4.87105590156159,A
11.230180988653672,-4.559666249640995,3.2552781855358326,A
9.541979017551244,-3.120574156216866,1.9387619674822625,A
10.793036186015684,-2.7172409007153475,0.6970594507136997,A
9.449480224630395,-1.3249191123795465,1.5224704001850533,A
9.956377746017147,-2.4216811020909876,1.2167989216456228,A
10.201010420743582,-0.9871681798580303,0.21479679871059673,A
7.405768615590986,-0.643934998891696,1.7857134836748736,A
7.684614940847466,-1.9781224193870046,2.151672460536866,A
9.896246729417186,-1.7574488502289718,2.6105931093463326,A
9.06329352339835,-2.4676423718028784,4.219928949930983,A
10.367440924350937,-1.6798482431862949,3.2050547424992546,A
9.867869155677369,-1.0794456036646836,3.0661213343193943,A
8.772653758277304,-2.8203182594141705,3.6624743672101228,A
9.286463096321706,-4.981701983741486,4.114378703506975,A
11.276671545146755,-3.7800686919458757,4.47030444185188,A
12.407790731554343,-3.6359389007451277,5.354377627831775,A
12.135657628205532,-2.921445262021803,3.32258851752814,A
11.687653543900803,-1.2984678111481252,1.8375228786419715,A
10.314584794391422,-1.619740979001263,1.5660838751656507,A
7.961397718502855,-1.9085373875415383,1.7257812459044783,A
9.367446538748672,-2.663835138595271,0.5638164815890911,A
8.30696214657491,-1.402707373297109,0.3882334169390368,A
7.450457279201146,-1.034489479976938,1.5160272209339274,A
8.646830479978739,-1.1626947965428354,1.3766130324126054,A
11.821695847623714,-2.1125669355363867,1.94722417200754,A
10.211116105361516,-3.5856042679115383,4.695490667659633,A
8.58092811070331,-3.436691130988424,4.329371972313104,A
8.827014272606052,-0.6076446342719993,3.5976604386037767,A
9.564391193082953,-2.7028051692082955,5.110697096368815,A
10.559005334254476,-5.5734509973494815,4.435099757916192,A
12.891590819778514,-4.0958016365822205,3.677748216191612,A
13.175725363391061,-3.6447491263511638,3.8287654465105536,A
11.140633439289985,-3.7903903713221236,2.145083233542853,A
10.18444273959273,-2.053470256392681,1.1232321554310205,A
9.060191169487139,-2.247948088667823,0.9080443015333094,A
8.610862369012315,-2.021519693595614,1.2750426556792112,A
9.384282306916814,-2.3399493340909165,0.7086470587012264,A
7.934874541005626,-1.1608467701484677,0.3101213785165393,A
9.159807954351333,-1.5935640524657395,1.2306002458216145,A
9.060407731742055,-2.4526781703373945,1.9020805112622794,A
10.14454228637552,-3.177930215042408,3.3948339413232307,A
9.453308179212828,-2.110046416211273,4.335518078006811,A
8.028798085494039,-4.810998340064658,2.143374653070966,A
7.360762581295456,-6.548324872760155,0.6482021617100434,A
7.301621850207858,-7.146949156145756,0.9807640351695168,A
10.05401589456995,-6.714853126466263,0.3920710632551465,A
11.594584923584295,-6.528562994290638,1.6317659586436108,A
10.040507856771502,-4.357385635690698,2.9543326770324163,A
9.15976364625323,-3.5320927570581917,1.864643176263856,A
10.171637305824156,-3.7961342124607707,0.12784344739262105,A
8.146758155410446,-2.138074501886384,0.8918227096315935,A
7.089307419564019,-2.7770091551958824,1.4371376064519308,A
7.284553911656672,-2.5856118037042353,0.14377226965594112,A
9.80760361549279,-2.642966603058751,0.334831339506973,A
8.671112948417099,-2.7448413980946764,1.4914097389012868,A
11.026789400946697,-4.331968983209492,0.188946997423224,A
11.170738512191635,-3.8027554937610937,1.6157522185995163,A
6.779640598676308,-4.7499593714330315,3.689334495023239,A
8.226852375484347,-1.4599903501739175,2.993552684131682,A
7.534770931745098,-1.7309236265551218,-0.3683732770440125,A
7.623167065175621,-7.5667086908036225,0.4320934452035718,A
9.89012530258045,-8.0032510598733,1.0892070250059527,A
11.252612439858012,-6.837456237769527,1.1721791549296101,A
11.690142342125181,-5.45029116825129,1.6394335686578092,A
10.337549179186686,-1.0779059275203777,1.3403188694537798,A
9.385687830444077,-1.175589873160099,2.129717695192285,A
8.042526738022302,-2.3475115608413253,2.610967356872175,A
8.1489553688109,-2.611384237237054,2.2551852365426117,A
10.090133728462538,-2.5897713503776196,1.0950921003011085,A
8.950560779269846,-1.1114036647227648,2.4643989399276496,A
9.684021352404578,-0.8820020740809573,2.3655280239561605,A
10.916270363243942,-2.7683545744492744,3.5093698122204295,A
9.094130321499698,-2.515347429215177,4.1848355981516,A
7.212622472737604,-0.8469102472372669,2.8979681804607815,A
7.414945963445553,-1.4149079602847134,2.0390229215448024,A
7.806591491265603,-3.8907993473685374,3.354650229222182,A
11.265293326107683,-6.02019248536367,3.049078375944904,A
11.178100519410645,-5.7824628435500625,3.4311782958756547,A
12.469636004711347,-3.0371928013308325,4.085671861908199,A
10.80349460062202,-2.394884741494127,2.742879399911933,A
10.948128218862912,-3.179478843643714,1.694212668572856,A
8.549753244812313,-2.788082857511659,2.5499285998753027,A
7.507583233183633,-2.2554139428850664,2.0792286969307123,A
7.815665561059809,-2.080257386035766,1.2374742020276142,A
10.648346907777608,-1.129499612188241,0.5186326110187371,A
8.446587588342439,-1.0838801230751627,1.4360731680072252,A
10.031291650536184,-2.813539305027056,1.480335203358948,A
10.484951479758424,-3.157992694977428,1.9437863600831804,A
7.4795450474031915,-3.180428423170779,4.354585068280294,A
8.69693092062811,-2.373107440085161,2.5240741863716654,A
7.759198909665361,-1.0747345199957488,2.489405188528724,A
7.477675590583647,-2.969645235792724,4.425014626245505,A
11.143294894674005,-4.823715246776179,3.4883925313112245,A
11.211745934318799,-2.898090571500478,3.5425359017102114,A
14.560962494743189,-2.8971878099798793,4.19033098916596,A
10.433642420583347,-4.344702872228817,2.1448416881947785,A
10.080525948476502,-2.712268518788205,1.6646375571919436,A
8.001170978067655,-1.6495295061525717,1.816284503861573,A
7.87427232905321,-1.7660510089908539,1.6980948450837106,A
8.252438804397674,-2.3631982584657476,1.205900472687262,A
9.470491845164275,-1.3951713613570074,0.6162151048729627,A
7.538164175918176,-1.3378205969944097,1.334424129996398,A
9.970540993619974,-3.009136788741928,1.558652194429584,A
12.320795077313058,-3.1992748454280244,2.4334149636343962,A
8.197881634421163,-3.160897533946158,4.628239823734236,A
7.033225045293938,-0.6768008566053602,2.960782394734508,A
7.619094542018395,-1.0012051225706429,2.420383804116234,A
8.67174203721942,-3.4753451818644905,4.1322530823716175,A
10.274008129570468,-5.053169900296261,4.326329696454521,A
12.45335247805016,-3.629492775459631,3.1064117012642063,A
13.353138794248665,-2.4985139443065307,3.6460497248981207,A
11.58554805440701,-3.215619007234174,2.1430734970774923,A
9.79262433397782,-2.7777399245819057,1.5491394623300447,A
6.229613440188662,-2.1176473171423926,2.0542679949681992,A
7.566123596307529,-2.1472789692507894,1.896216824330972,A
7.557863419792468,-1.3517968801519737,1.2309646022403564,A
8.73799854981446,-0.39266637838103935,0.26404486268568156,A
7.084419641480439,-1.7625108698632486,0.8509742670535538,A
14.335199032363384,-4.283709076785629,1.4380850405920356,A
13.460279854848123,-4.598334536417311,2.637860876544563,A
6.58048645945382,-2.4735080479187586,3.3791920659106864,A
10.407931231115638,-0.7162993288259347,0.9605497905146887,A
7.42237927988365,-1.9314201192746125,3.12988957516526,A
7.436932350352386,-5.139698537577815,6.459017052619443,A
11.12175456057317,-4.9080447783219965,3.6894459489326685,A
11.68424669267732,-1.8630258850497878,3.749397991235158,A
12.905675300798208,-3.027873081377899,3.0236685582524774,A
13.196054898653145,-3.017343695043536,1.216364641581641,A
11.67758296824791,-2.1178092749972564,1.7380879742506725,A
9.24528486409218,-2.2545373352726163,2.576631758146966,A
6.666880963704791,-1.7665972118429452,2.0916702168710657,A
5.854051616348474,0.3145495959809784,1.4865381925118637,A
4.643617156845548,-0.4870036667761041,1.6919023680427607,A
7.356883930033337,-0.6363390894486629,1.9527233403863384,A
18.17485897318882,-8.548122834624014,3.642452429398776,A
13.304378305137119,-13.12555894864664,2.7061529783060543,A
7.0744530903084115,-0.15329835489624588,2.834976410171462,A
5.1234021834538375,-4.916079789902682,-0.5032871756469344,A
2.9555290296271757,-6.456352085982499,1.332382435463388,A
5.183397240953075,-4.677667790615689,3.4677404646361634,A
11.294769921118181,-5.530793508252534,3.296573864868044,A
13.137062466755504,-5.952352759810077,3.0874925055924227,A
12.606777664741724,-2.9903452095505005,3.6423564395976946,A
12.232528254628063,-2.7941760153414776,2.7724087625122316,A
8.833823717017276,-0.9464627675222514,2.7607892922076207,A
4.908346745184301,-2.1822964874473842,2.9981636952089517,A
5.60835798152125,-2.119201140862808,1.4708594708627871,A
7.669707015014719,-1.9747932596590196,0.8716705610491492,A
11.373212543946302,-0.13575883280722484,1.9742230754544439,A
11.16837960169191,-4.777056838697688,1.4950303554802564,A
12.242821343587302,-5.343002475617251,2.8025292446541936,A
10.617074705907765,-3.201295053443177,1.677244467767935,A
6.361130225582733,-3.5850397412069124,3.3553315374787753,A
7.744696290609529,-2.9265817271656784,1.6341413033063874,A
7.244408774831882,-0.3038921109425825,3.069835604485386,A
8.945032143155,-2.869721089482881,3.5977579121711507,A
9.853966913735347,-4.500390552510621,2.7455714664076702,A
14.608441701466266,-5.140789071038622,4.611651392201913,A
12.609701563078895,-3.5937436964831115,2.8974329010898847,A
12.507482706326105,-1.5587868404885963,1.5226319986786614,A
8.31552335103177,-1.411508413717024,2.7337480816086,A
7.892074454562596,-1.4848926883284905,2.261472324772876,A
7.150297054155203,-2.2245793166702343,0.9393294904941323,A
7.010421646073986,-0.16580474409739143,0.45688675580854143,A
6.120164669651628,-0.8694357215031459,0.47819143722436785,A
11.070316615788894,-1.925268437178948,0.524696348809483,A
15.663803706018317,-5.902434331067795,6.0841615950805705,A
8.088479477478243,-3.888310678163666,5.785723742484894,A
8.600831885995433,-0.3568469290726987,2.657505627192049,A
6.833077783885334,-1.9912085806998125,3.3895861331335455,A
9.956107314705319,-1.9578488706091173,4.115373932807064,A
9.911504599534048,-4.253214463371892,4.004248849855245,A
13.170661226090377,-4.9285843600361865,3.093753277552821,A
12.060825546784521,-4.470465330848334,3.2458633226489724,A
11.915047421708541,-2.1232442075601945,1.897723241951104,A
8.265540771588022,-0.5560644004147707,1.6271643115415184,A
5.8038420046805985,0.20008878052483656,2.7675573844927506,A
4.671761638564758,-2.000757823946391,2.297940127914154,A
7.256845632069164,-2.949939803404712,1.7267974508034596,A
10.003502203859199,-1.734907095475684,0.9246384551066547,A
10.725932108398492,-1.4197783665643877,1.3854760983569063,A
14.999677812107562,-4.2120618208844585,1.8515045100363392,A
8.877578169044787,-3.6257272448932123,4.2508421672478205,A
6.22684926218493,-1.6256614041225497,3.2312075521067856,A
7.396986141556957,-0.5435981507405429,1.4795543935856332,A
8.282198411312852,-2.166250090368235,3.3756474674365387,A
9.966026708426181,-4.200846193549969,4.7311625028294815,A
12.195695946317626,-5.256836081382149,3.9430752137983838,A
12.227758686710231,-3.802048841241005,4.31008261893746,A
13.486822351390728,-2.750465617053628,3.004305527876739,A
9.950923546416861,-0.8970624609634674,2.153216947921299,A
7.6417144064618485,-0.985220901923735,2.794132821483364,A
7.432952065426402,-1.5800067522890957,1.3856166427653223,A
8.597717549862177,-2.659848358430029,0.6659346266390515,A
9.728928389894818,-1.893514179600102,0.13016852001547097,A
7.121033874813685,-2.4052807639229843,2.077503000268529,A
8.704063149871857,-2.2179991632390355,0.6441239009043923,A
11.705238404276145,-2.4176189178078475,3.8127531948094546,A
9.145824111479929,-2.0682878746774658,4.352080545512486,A
9.355892744517346,-1.031893782117385,2.838434155714898,A
7.661650229851799,-1.0228108681878756,3.13491617512771,A
10.539188086247602,-4.62606906931863,4.241389384438239,A
10.031658584640402,-4.945083966018661,3.9266690298363542,A
12.772854546296834,-3.2576494627964467,5.102516921235406,A
15.094984816449822,-4.51995354708524,3.7591827692863165,A
12.202730445830479,-2.4639690860686545,0.9419124812776275,A
10.683386241417352,-1.1460215157977711,2.167191970037908,A
7.615226756863596,-2.2159109615898145,1.6978967676247572,A
7.6851797698299285,-2.3910635454990774,0.8886385813211156,A
8.689825649736024,-2.0937885140922816,0.4717342917864386,A
7.1543157862484605,-0.08640788221627173,0.4607014130040349,A
7.936799611175712,-2.109753451694643,1.2276663396058942,A
13.525809371394272,-1.6175644868301486,1.109537417459057,A
12.84132422210752,-5.1364249390707455,3.7824958835260354,A
7.782872450503824,-5.765565945399277,3.114445479507826,A
9.93267884610896,-1.9979956360613416,2.7986018590385893,A
9.165177928287601,-1.3944312964500876,3.6981550640928256,A
11.652503410186805,-3.73870991974447,4.412618303661449,A
15.332942926041202,-6.567888327773557,4.610513657013967,A
11.169074722752386,-2.8024051114632083,3.320535829016781,A
13.728664576240488,-1.619863056806944,2.1126359820721485,A
10.410699522281742,-2.2410219270789615,1.6191178286991201,A
10.5809348026836,-1.517075891504853,1.7839642063527958,A
7.1408405895959035,-1.7655348458419997,0.518931751264982,A
4.268625415936232,-0.00459325369460841,-0.17183604784532147,A
3.199532853926051,-1.5139003628086656,0.8362387975660068,A
7.473283513137606,-2.9705974028924755,-0.0014747123795513795,A
16.40412817904303,-6.7197454202177616,1.611257112914958,A
12.584327492065434,-0.5165096212074747,4.194601133530434,A
11.073372836304262,4.244907668774746,1.455363859724573,A
8.92404812051481,1.0734187886868876,2.2335780982773104,A
8.400707923580233,-3.3846973771827145,2.573804546934916,A
10.581235427467085,-10.959470166153345,5.290452861873181,A
12.200388347079762,-6.39728094609157,4.964968339362296,A
16.42611027935755,2.273285282820902,4.754002672885138,A
13.806824397532644,-0.16924373239392074,2.1806360295155254,A
12.617594725781242,-1.9085450496322247,2.872450800225204,A
8.512290991265868,-2.63321070848795,0.2872495543458952,A
8.472986380325738,-2.173362892099079,0.08397571297550971,A
9.953140536834361,-2.976286926142045,-1.1493667014914837,A
7.887050244706366,0.14334816246895707,-0.31172096359301493,A
7.038194238316304,-2.912374030061918,0.7660517742349903,A
10.650904375291798,-3.0310081438690704,1.3412961800083412,A
9.238056868027417,-3.12507576071274,3.3801456766110842,A
8.59319622206013,1.6681273067935818,3.384426380796308,A
12.678655597819146,2.5490036694015163,7.306212926954945,A
10.898991324679997,-3.933671454192538,8.826781633961167,A
9.649028947548633,-2.0782158504477066,8.498903368920411,A
10.820739968490932,-1.6780238944935306,9.02804652198444,A
11.985838529047761,-1.8063975350202672,6.285263381103771,A
14.922030770193343,-0.3676135530224489,5.555403318373557,A
11.395554645596116,-3.8755973893146116,3.2923028404484884,A
10.145377634625964,-3.118359386799307,3.948906993002089,A
8.963836339565113,-1.6282599479248139,2.339397871280806,A
7.9275316026029605,-0.6629934699162947,2.6898130916011986,A
5.472601694130486,0.3441813363189569,1.2925067272745023,A
4.494558697327039,0.4010346637204336,1.600227486766337,A
8.351409875970594,-2.323732973021775,2.9581723035346617,A
15.047121024794103,-4.846140121115543,3.253277803989572,A
13.376954145900172,-7.830178186624797,1.6046576550430296,A
8.015913712747553,-0.7866406293268442,1.7122753508629682,A
9.767880461141187,4.083812882893532,4.44335100790724,A
9.394233462760257,-3.651250205599923,6.090169355361253,A
10.444286342924649,-9.215121811182895,4.3500787032978065,A
11.423683013764041,-6.019162356781752,3.579542616335151,A
13.215352117701052,-2.864540939466639,3.55435543839406,A
13.74143650403718,-3.157422960088028,2.6435187384632304,A
11.321878575725536,-2.6529900894899963,1.0491228497889895,A
9.259092755687695,-2.964663690886882,1.5943096836081636,A
8.259348681908758,-1.6742263898113454,0.2260499077875231,A
8.604474901494198,-1.3358428742836441,-0.13929937595807268,A
6.625645642036344,-1.2174956872370364,0.8771941206790678,A
5.082568549748558,-2.058171541650944,2.5538351533519656,A
9.775543372376546,-3.4470292160370435,2.1431577004938105,A
17.28577473147399,-3.5056991898435683,5.612761906395763,A
8.491455008201727,-5.694054399994343,3.7073592164433258,A
8.137345986203718,-4.330948562149498,1.9576638371944577,A
7.394528979886157,-2.9095492355672103,1.6119515799037274,A
8.964571739206182,-5.682946385019094,3.4909062215845683,A
8.87645559519393,-6.134053022338304,2.405139019340555,A
13.361915382285602,-5.242394478953473,2.084308548037789,A
11.75936700962673,-5.197793901674134,1.8561780394794423,A
10.847663860299498,-2.956565481914814,1.7947660413837707,A
8.48543007565437,-1.7366534681032846,2.169546075689138,A
6.292828420775078,-1.9448470556613697,2.5329439677428294,A
5.609193576523488,-2.272846817239135,1.6421063372571458,A
8.349939123063217,-1.850048488227804,1.8983914370197383,A
8.044463366875151,-1.4474837526296747,1.825015743867786,A
13.041479877087145,-2.393904056462492,2.843897416935671,A
12.079144517484927,-3.6637457183337716,3.7322176669946723,A
8.324891573628177,-2.5039836699419356,3.76195910848329,A
7.795447001342609,-1.4054179216270413,2.741994162597942,A
6.072851756138258,-1.18163512891417,2.4020733921679267,A
6.617649232735342,-3.1666729820344894,3.330020500109685,A
9.38446238140932,-4.425332333349465,4.329751622684498,A
11.45107857400464,-4.299603742357018,4.207088828519456,A
12.897652011017406,-2.429323191313815,3.814628015546199,A
13.322915642190493,-3.5174497095718054,3.0757016230036855,A
9.14675329242336,-3.1773224341229267,2.2792336432554787,A
7.603665758625623,-3.1291113201775005,2.2781704648225376,A
5.240281944129939,-2.2946039263503586,1.8580385560933603,A
7.815054770932391,-1.967620937313085,1.4096029739625164,A
8.084286883012341,-0.9229062367266359,0.2352748858749919,A
9.40055212118269,-1.2504813259099308,1.1285829941922478,A
9.482522853824888,-3.851512996613884,2.540821704248192,A
14.250784838553145,-4.333408916563932,2.8102818080215854,A
8.88086626810244,-1.852269729608031,3.950340702019318,A
7.053768614579076,-0.16992223371786264,3.309296262824148,A
6.6888095413871405,-1.0809331123558281,2.4052660683577622,A
8.869098032401432,-3.069539802583321,3.570190822063587,A
8.70790989104219,-4.286352985014586,4.220783382021545,A
13.514538554552713,-4.569672198918616,4.10970672869032,A
12.472237790287606,-2.1800504133981846,3.5975711790914326,A
13.617202526924196,-1.2210191834458362,2.2043618132873943,A
10.91069276768076,-1.867892396340804,1.2419725006510118,A
7.617636900815221,-2.403207385905967,2.1845647612944474,A
5.708432663010389,-2.8999150643833995,1.4454842574351416,A
8.827467444795415,-2.304617222957373,0.7213300018096249,A
8.536945068653626,-0.8917049265102783,0.3022131950495861,A
9.4867997816111,-0.9997809837384524,0.7362620992512166,A
11.823977935564,-3.120013836079807,1.550580700743237,A
10.515522298953343,-4.51192474956918,4.47192607807946,A
7.601445435878832,-2.8946204215695577,3.9717182477979103,A
7.025552379865492,1.1075163712966425,2.0048320916082782,A
9.424572349078273,-0.10218713259348354,2.7588392453662887,A
10.308447980134723,-4.560382775462584,5.799863515000613,A
9.986891586458501,-6.186490605039629,4.324567433197091,A
11.214866807679957,-2.2780239827327433,3.9122650493536817,A
14.208151934243302,-2.4214538845470113,3.7543894291834796,A
13.092618378724339,-2.376109384212601,2.017515142765397,A
10.389229200282895,-2.405781581250676,2.304143666014356,A
6.614399374064721,-2.5713625075668056,1.972892128251177,A
7.2027598962069055,-2.4564210570559517,1.7815704625951687,A
8.377850941799258,-1.3827458259003955,1.0715068206066631,A
7.633324476147809,-0.276018019740205,1.1004878786884995,A
9.006711695421433,-1.6241424883917401,0.865649214035749,A
12.460290983116051,-3.5886026931512376,2.4541179668902005,A
9.708375180813656,-3.839109021697693,3.8758760411526803,A
9.43532434199697,-2.074216439515972,2.7914763798752276,A
7.3719007222321515,0.18959136133594212,2.1080880110380757,A
9.964136805092929,-2.319097857302102,4.731342784269751,A
9.388342445454347,-6.449543229392167,4.890490656549542,A
11.996058287286026,-4.641385728833892,4.37804565012317,A
13.368542432809603,-4.332559698023205,3.8644101987794026,A
14.05283505140882,-2.9017486374317136,1.846290514944256,A
12.549892123510466,-2.3959125172110816,2.0912937691299103,A
7.968035402962525,-2.0687049436482368,0.3922703358288443,A
11.208121095033293,-0.9987127879983471,-0.0940324546524029,A
9.68361329922487,-2.3851057168177743,-0.07607289347778737,A
5.772590115061128,-1.0304154250637776,0.8019154718680941,A
2.792900666740828,-1.2629706886284504,1.8432993478277666,A
9.162988216258588,-3.700592168373788,1.2626109681680169,A
15.440804755557455,-3.6576340952998105,4.736073343665317,A
12.705932192075593,-1.7843837210518565,1.9447544804272026,A
8.76759962751754,0.7079591201576763,3.2827707939975874,A
9.617518649079823,-1.177679985176605,3.1728861165414672,A
9.001479136269609,-6.396730056947757,5.538905471524937,A
9.077439428254474,-6.044245708321931,4.618968475378172,A
12.615803354431364,-2.5966089626438875,4.135963071362275,A
15.35986779322941,-1.9264375245273986,3.5476034035828903,A
12.945519454015306,-2.546112424323149,1.9470146600556781,A
10.168833976647765,-2.0123300566146565,1.146346459823327,A
7.861296369809718,-2.6004642124330664,0.9844935663728931,A
7.88089680124445,-2.5297319951365136,0.6529356860551111,A
7.241040583643209,-2.216175545455867,0.11181485329653912,A
6.503188127785714,-0.4865257853066651,-0.15048045169551139,A
6.983576391917319,-2.238576660361055,1.3377074787486507,A
12.421067794169083,-4.126337406466737,2.6676148239499016,A
13.30757244189246,-3.8788168836403645,3.615981620565255,A
8.64263976846576,-3.7590208583902847,3.2869782122219675,A
8.095413391933374,-2.021301837223712,2.510604530403012,A
8.662429160165086,-2.4113909141603207,4.384718778943855,A
10.377811060085417,-5.038170840848444,5.751112220183448,A
11.39683069018217,-4.199356748512527,4.255406600055496,A
13.715897298800336,-3.2441799877319974,4.235033470078302,A
10.875696142740097,-3.2245788002438296,2.4996767921580343,A
10.776971603473655,-2.826116158909301,1.9225174132503913,A
8.840048259585755,-2.2138575004395338,1.6310683580326195,A
6.6988245513706985,-1.8357192049097628,1.4472410521080807,A
7.618990866712274,-2.441400513653086,0.7540356977786372,A
10.047251822429303,-2.0550376832512818,0.4763924504134764,A
9.326331831022225,-0.8706032991966961,0.5046711101294957,A
10.454046800193884,-3.006901759597789,1.095876542374528,A
10.330822545352838,-3.7581494337911816,2.5245928308715744,A
7.329373508722653,-3.120323326476248,4.626750024520921,A
7.375271958377027,-1.2384404815333403,4.397000757290521,A
7.748059888165184,-1.414760466079659,5.26008895550582,A
9.26163004572622,-2.5411573954076485,5.716096265445936,A
10.407224267637416,-3.222481446589,4.73021922036822,A
12.871948295604774,-4.158780335605533,3.612638356064175,A
12.46077138500823,-4.931926380772296,3.42834484213497,A
9.859262326049924,-4.19348550717334,2.688954190944303,A
8.200524237170743,-2.093026474378843,2.1070852853586537,A
6.258827384656981,-1.4940324123249376,1.6646753308919182,A
7.6318526134502624,-1.522381222331596,1.7217787212328357,A
8.043884133463399,-1.7544224191458753,1.42468105237703,A
8.533173122016775,-1.6964248034854224,1.4958559584818971,A
9.547176042676504,-2.3611744949890747,1.7288415452242685,A
12.956249932645884,-2.9055026111223885,2.574767997407698,A
10.938247408349303,-3.5017014382732885,4.573927644268168,A
7.632751077504354,-1.7343344832380052,3.4285722391319604,A
7.860881021695359,-0.8866550570989405,2.1518422218068736,A
7.993220002280292,-2.255457452984394,3.8314571711940455,A
9.006762588715954,-4.34420745331159,4.636263995465832,A
9.899350331732094,-3.657145564681308,3.4525986520604612,A
11.864544787738705,-2.927050241547103,3.661189066508746,A
11.463994784064042,-3.592101388554879,2.7759357931831232,A
11.667098412846295,-3.0780236805305368,1.8555173363222726,A
9.213275862006533,-2.2176018275548017,1.7982319168932848,A
7.027167469662572,-1.9636304058237948,2.1643964949015113,A
6.705343589895851,-2.3319322627346906,1.796406933311991,A
9.059779869585729,-1.816868179308169,1.2401160417204729,A
9.380707504487495,-0.630095601385001,1.3897432861460595,A
8.827864846407222,-1.900002754290177,1.9246773869172817,A
11.960735587973224,-3.6100475537889363,1.9097704989433666,A
10.222463735283263,-3.2829510240402664,3.876205420931551,A
7.499686284701649,-1.89229604691797,3.707844776380689,A
7.5178794062475465,-1.1189781019702283,2.232919126512637,A
8.384672389493451,-2.162527948916064,3.424943729097148,A
9.773437895455913,-4.361101109931367,3.9155424480893575,A
12.031847622090877,-5.380070429200982,3.366647922645453,A
12.49489740803689,-4.468667140882547,3.9899987872094567,A
13.119445374423075,-2.940136981749015,2.2310681766960907,A
11.072677144174186,-1.77331350187831,1.44950203506451,A
8.811284489048735,-1.482551154157599,1.9779837445978155,A
6.839224924631887,-2.0627490520584266,1.4294774172801947,A
8.235496510210309,-2.6321451972031222,0.6517809635928391,A
9.059587745014978,-1.2200485894669952,0.11097117155187637,A
7.45159707838498,-1.5499084908327552,0.6343087289812075,A
10.930257509088916,-3.827249531067976,2.875243286002573,A
11.579700478571738,-4.23905567332258,4.080816750016391,A
8.967296715250786,-1.4763183091223953,3.631579732138642,A
8.72635921071297,0.577612573724179,2.3266515443712357,A
8.42676359226335,-0.5851232030750759,2.999908945139216,A
9.86991372849863,-3.6656674805195375,4.419764442095939,A
9.440202195074074,-4.692431718647751,4.5190189018629665,A
13.482952550363752,-1.7539332657699547,4.0526030781892315,A
11.907155798979904,-3.2294338056813303,6.481196320178663,A
11.833087144100821,-4.1429915441276215,5.419115912734863,A
9.108490816621654,-4.195856841417863,2.408631328559851,A
6.90322690069824,-2.474045944669825,1.8574611645225596,A
7.136333420967728,-2.8214345795661235,1.984485964755506,A
8.185213085997933,-2.6838702036266486,1.9624440944591475,A
8.006806577702143,-2.2862118428972336,1.4032387778554714,A
8.469431140479958,-2.370476390361142,2.34488766602604,A
10.670737341486543,-3.5971801380460393,3.2241945133365912,A
9.426096400978913,-3.632552857666463,6.407189287364776,A
8.043128200345848,-2.1371922929475926,5.479435820880523,A
6.8610981467341166,-0.8159336062247782,4.100255663945095,A
8.142886479614422,-1.4750863630569666,4.41537868386011,A
8.213366782177275,-3.4663728904925004,6.111189027428463,A
10.844053920234762,-4.881097428458382,4.194284280758422,A
10.518980437889079,-2.8067024679114456,2.5970969624039686,A
12.313384188844395,-2.0006841889746467,2.7226595993348175,A
11.89169914972139,-2.0956440589695204,3.3731091556302846,A
8.481181540752372,-2.7388159703978814,2.644714453115937,A
8.661511916819496,-2.38791373736481,1.7785306776405232,A
8.590921081406197,-1.4740943063554592,1.4425346038904336,A
9.572382418825152,-1.8830336414214006,0.6047308907422815,A
9.415659395143434,-0.1662384681506535,2.6790773469521567,A
9.71068553079851,0.9723446864054127,1.1365129370823546,A
12.841656074825739,-2.926423452982471,1.7115031819575426,A
9.415977418086765,-4.242217521385457,5.136855601882616,A
7.937645308398136,-2.557010919297978,1.7917052913449383,A
6.521407589339074,-6.015799867731881,-1.5135144835278649,A
8.964513505369174,-6.276490917516793,0.49771392724776575,A
9.854384564407827,-6.720310493324018,4.477164370479891,A
12.47711014458669,-6.114771948445679,3.228353387313532,A
13.208243337363681,-4.1466473254865495,2.250039296955355,A
12.284719820916283,-2.115201593750641,1.7250941457063247,A
12.182367346178205,-1.6703374895112306,2.7234247571542887,A
9.214794002006828,-1.2532573053800913,2.2181620258330987,A
6.8347444749428705,-1.700687117406288,1.6332621677706354,A
7.275062350651608,-2.048549443676007,0.503352339553504,A
6.785024937997218,-0.7903408089973061,0.3783504366947663,A
7.621079237049813,-1.2335866958170372,0.7213425944106472,A
10.778323088074155,-2.466483920753433,1.009232390616624,A
14.201373324318713,-4.404084347815499,3.472035808198367,A
10.802239074776866,-4.056247627306307,5.221872179920869,A
7.763065228403886,-0.3534560912025898,2.6389032574615774,A
9.327017534054676,0.19314612359300964,3.8254763795954094,A
9.846661677838501,-4.290577250968336,4.831591846401209,A
10.214266358708201,-6.49679750533103,4.793694421235272,A
12.204007547663775,-3.844038625456274,3.2337202521171267,A
13.537301268348228,-3.177946455366915,3.843949023802313,A
12.379828951447717,-3.0084215746387972,2.5252224465350124,A
12.097052462960354,-2.1149899128409935,1.6451431517049588,A
9.370821479444073,-1.757764369573967,1.5004538432041246,A
7.161190703019985,-1.7218197396714694,1.4705424200390114,A
8.093907829268034,-2.250093422985731,1.0100308239650009,A
8.417573408076665,-0.7809339867146337,0.2738063141243775,A
8.003422633807446,-0.8622796310652092,0.43662712884658117,A
9.168095953790552,-2.8754581072758807,1.9884817941192332,A
11.010090671973252,-4.266491733203827,3.957369765880904,A
10.491144361011145,-3.3930874996399965,4.821140362606266,A
8.308946472534734,-2.1152025765362317,2.875382999545624,A
8.050855346470401,-3.1537122791676326,2.7510902093315197,A
8.434236834791175,-4.706923253855588,4.154061211877025,A
10.34795275981077,-5.85604184412205,3.9493124687380785,A
11.604818332116139,-4.471969212486385,2.980882518451317,A
11.78481828671879,-4.01302754485032,2.98946269216527,A
11.86883850088626,-4.054298193369351,2.0601031950889888,A
11.151984724952284,-3.0056860063607522,1.631999732798666,A
8.24537880587546,-2.1613318282073637,1.3397977625295256,A
7.126437738998435,-1.9767080445367182,1.3610701957300044,A
9.493329033777343,-2.3277482614259095,1.2451642765657032,A
10.255215830944751,-1.1463985965637231,0.3994039408747139,A
9.944988512598607,-1.5684403607364568,0.37698743294281584,A
9.777306718190498,-2.735931072761697,1.6220434484151554,A
8.19485839503828,-2.562481289313798,3.6114493447890474,A
7.5109888279577035,-2.2384348888232766,3.8977015002597137,A
8.324751666239962,-0.6304588752729138,2.7658949483013324,A
9.767665587614664,-1.4613047996752675,3.2746536948341998,A
10.348730508962536,-2.8936605772601616,6.44045124291082,A
11.314927759731603,-3.281586650161858,5.047459132063506,A
12.26219509137185,-2.1678651484887568,4.214951117470212,A
13.267144241708985,-4.924658515493484,4.923880310678889,A
9.710925491022904,-4.091311390710607,2.113314111581025,A
10.32691720411775,-1.8621862728698426,2.1789826857911208,A
9.296817900971126,-1.520254116063823,1.740185470826151,A
9.392005530215663,-2.274341721360223,1.6739040075040137,A
10.511620083279425,-1.99919382802604,0.4677857842339873,A
8.49214084608588,-0.5228635679343862,1.054927319449241,A
8.798026496976336,-2.1896577863668374,1.6030373396543727,A
10.936435995705713,-2.3861711387272133,3.385096149942841,A
8.647790604215606,-1.395287655444548,2.979753303223463,A
7.469066294451988,0.24324637302026733,3.880693885050148,A
10.013622501236028,-2.5479962354320125,3.2573359810787235,A
9.48915999623371,-5.828091678433469,1.679975340926107,A
11.019011621491284,-4.138327246652243,3.858093281650127,A
12.224622272542046,-6.1172307124303975,3.4385247595866226,A
12.27596986610141,-3.886308548765091,4.137239126681717,A
11.496000249653202,-2.8132923455403214,3.443851425433931,A
10.186728711804617,-2.648333652443561,2.5043056931744685,A
9.722039431246358,-2.676596609543749,2.124905159180599,A
8.423625855592547,-1.7313429496071941,1.9660965138593234,A
9.808303427542189,-3.1014989803459057,1.175295520449657,A
11.235680853812282,-1.338632212228848,0.31753537394559067,A
8.15965421820348,-0.20492094675076977,1.2711484870459335,A
7.566481011653581,-1.6433563913627944,3.0927469207374725,A
10.544971447619567,-2.3941367980191273,4.256423875815467,A
11.347250910548283,0.029339515294275864,5.316397303198001,A
8.640360029277966,-0.17841106331623846,4.532551764300053,A
8.407882506279483,-2.9181278350695163,2.4134574280950107,A
8.535891060449407,-4.9628983414406775,3.346714259208545,A
10.343532572123973,-5.660145277689871,2.882270656862034,A
9.664130722085359,-5.787586094952295,4.20718143797122,A
11.50174324142214,-5.213051148298544,4.1751098324587925,A
15.489835969677575,-4.908453934154346,2.70042209312393,A
11.501243722275225,-2.221845589974043,1.0796428513211578,A
11.549545655813532,-1.461725399717384,1.3677486490690063,A
8.23116879184652,-1.3071505729444475,1.6922889849252571,A
9.540461385565052,-2.636270357055006,1.0249121526661185,A
8.993599987571868,-1.4779797562560806,0.18031264920745937,A
8.405815455512593,-0.7844372868823679,0.7080306250785741,A
7.604053339055138,-1.9816157523974027,1.4152660638774786,A
9.925911486877196,-2.2768025527217564,1.7049045544755306,A
11.231551597234814,-3.7031235330407934,4.1073930103397,A
10.055758111389807,-2.92357743692552,4.04524989444116,A
9.753974078821699,-0.12241414993783924,2.281120804854948,A
9.358385226314466,-1.6317039305655385,4.037682998385112,A
11.33020412241936,-5.142396255987819,3.62041390090076,A
10.500617093306598,-4.859303323552772,3.310113678812719,A
9.549318929073825,-3.485500089655874,4.4299067717077465,A
14.412197039935087,-5.580218095249496,3.15708419708765,A
10.333979736419442,-1.2544294014736488,1.9615109420334595,A
12.427344901339863,-0.37906519336447597,2.4515443403984905,A
8.903030909219234,-1.0829777290636369,1.6926326143851342,A
8.698326651910824,-2.371808679913243,1.0065953268245709,A
6.579650698156022,-1.9372208381326137,0.6453929841230855,A
6.239490347392056,-1.9334368659026477,2.254929567482091,A
8.546652249824945,-1.577229723490033,1.0762627469357453,A
13.312320955315045,-1.3042541883485437,3.056699126507723,A
11.825845341495747,-6.402917469675545,2.14558238670355,A
9.266835740730098,-3.622521829454545,1.960053770886332,A
7.073156728478279,-2.476169745904438,1.367993777143755,A
