accX,accY,accZ,Activity
-8.496634369370518,-4.511957865713636,-1.569994483007136,A
-6.487304059283452,-7.851208912028631,-1.145899853652604,A
-3.5307735212445857,-7.980648964894181,-2.2626853259013266,A
-1.7097682945976076,-8.851097068363153,-3.9627555700649415,A
-2.0362881560666564,-4.514777720040724,-1.6272397273651615,A
-3.067161268060238,-9.269616503540114,-1.2322346557825041,A
-4.309322772163555,-8.948288171228889,-1.6309076379696705,A
-3.977739717060305,-8.810667888208553,1.5067637710073143,A
-2.018023854224152,-9.60575373578436,-1.295785983307892,A
-5.510849791071515,-13.105655943208951,-3.8072757055601634,A
-5.911417989609371,-7.980765231616553,-2.287476555103132,A
-5.542215388703637,-6.465499282193927,-4.6885771274833346,A
-6.742619718203838,-1.2282596174607792,-2.1560743586893296,A
-6.8242840150587,-2.8865497075423407,-8.626277475452076,A
-5.794524719238983,0.8866968255390859,-8.519602339434872,A
-4.1413708063789265,-9.99503483781263,-15.390736848579607,A
-2.958234760973923,-7.555224160316238,-11.030554285494357,A
-2.2169890267160897,-4.447523975859232,-12.281822487240301,A
-3.396454829433564,-8.582659479459771,-8.403232258223552,A
-8.14352218334885,-3.942607755264864,-6.613168376460111,A
-10.78856573789745,2.967738003414552,-6.282514854996658,A
-6.405739400568835,-2.0748242641222534,-8.053108372932357,A
-5.237514436467282,-2.2874635001382395,-3.324465657082944,A
-14.211884389483167,-4.818898572534572,3.621453766612828,A
-14.397902977805229,-4.768212972199898,-0.44482569597091143,A
-8.784115516752934,-11.393705862915098,-5.192108393295687,A
-7.513650411104434,-9.652575987072057,-5.589367273886056,A
-6.210012292527745,-5.856356976558599,-2.6201286775015813,A
-4.987832449811869,-8.098590888954071,0.526756054658241,A
-5.716435709787549,-8.939178479711924,0.12256034968801911,A
-6.9651320233904785,-8.335161751586998,1.3881494003065966,A
-8.323271656532553,-5.224218210693916,3.1531464755179255,A
-7.103525395560081,-0.4398306109630202,3.995161195793192,A
-9.157090323295654,1.6568285134650034,1.380213758788704,A
-12.15984775355983,0.15828011075979379,-0.2789449308918006,A
-16.478762759120954,-0.05489298746911601,-2.895019484242289,A
-17.44534766971788,-4.871484978603336,-4.334945392691899,A
-12.497894897472621,-5.044923182399943,-1.6525663512683615,A
-10.172373711395435,-2.4614455059061857,-2.9236031302717067,A
-9.573674269988162,-3.290097051076958,-3.8444794648767635,A
-8.270698364953592,-2.333226667130494,-1.5489644969380323,A
-8.584722741721789,-4.107506400209082,0.07663422574515717,A
-9.18374855938042,-8.606011274558606,1.3911797998084887,A
-12.01875032352515,-14.942151741375962,-3.8037155808577774,A
-15.179075075440105,-16.363359490990383,-8.092764373258523,A
-17.60607475971979,-19.047790548394747,-18.979424065809162,A
-15.580491527448656,-16.946884286676728,-17.942915981555547,A
-12.317638290092983,-4.826652053551885,-11.095148959444789,A
-4.95244397155035,-3.1732281085401848,-4.20617015787414,A
-3.378961107150214,-0.24427680594068027,-0.0579252366878353,A
-0.4209231856283639,-1.1846121077115734,2.259620201707854,A
5.557930998984466,-2.844070523154037,5.07250180762283,A
9.222770801786536,-1.12412803033776,7.57824042118034,A
7.398284372517685,-5.831678071837953,5.7350889069932816,A
5.11706700191474,-8.116061312126357,7.049217975055694,A
3.089877014050868,-4.1021902029570345,5.532254527555693,A
5.311445653132437,2.05622506599241,6.592354799457227,A
5.7659240452442635,5.096925138935419,3.8310010412450657,A
17.415390685532703,3.0633230079389215,-1.2436349817537946,A
11.91776200796002,0.24100352470047984,-5.454129472105522,A
8.852860169731397,-7.262913145019432,-4.393617874443348,A
5.455955880626191,-4.953400185660127,-1.3899042026913626,A
6.021274298564328,-4.936483363040726,0.11179843268934433,A
8.52237022115695,-4.702282763518284,0.5985593999801726,A
7.627868860873547,-4.876378530950047,-0.050495185198318616,A
7.241422603681733,-3.329501867251021,0.13254582896966985,A
7.941453181028031,-4.751792193384373,0.693155216646047,A
9.540516097567163,-5.100011543957553,-0.9793136363991679,A
10.006333980389547,-7.484857325438683,-0.8603473509628763,A
8.627220758556259,-7.637460171298095,-2.6517059707527912,A
5.203058406891115,-7.708968475426336,-2.356494571593217,A
4.815925026658444,-5.666801911105831,-0.5933788753423167,A
3.4338947284208663,-6.204427361712264,1.826486935565656,A
3.7613530611345296,-5.964733033641392,1.1003509312045223,A
5.582973305820808,-8.922690016660818,4.081624459013216,A
5.8868754405524975,-11.166009984677219,3.5554856554940835,A
6.129042624367883,-8.259482124093052,5.6231654225441465,A
12.494830895764261,-11.197528157802576,-1.4940056878004047,A
9.856937459119054,-7.271392284846952,-5.228254035537442,A
3.5776642063781288,-4.633026451753036,0.06226695684902194,A
2.838093135941131,0.2840974507042801,3.8112170715768388,A
5.872057306770459,-4.8046720670504,3.044276678963509,A
8.08485505085728,-3.4850984407975862,1.1773154613705203,A
9.536584161729548,-3.662209344120708,0.3870974903921864,A
11.720541948972926,-4.061394459755859,1.7126374313772952,A
10.304045698658086,-7.00966646024605,1.564276241261686,A
6.229445245784597,-6.475089135673815,-0.3875176242547038,A
3.011095015652237,-1.4206783404680554,1.704017267938806,A
-2.638913580687759,-5.72799364199027,2.7952013923490697,A
-1.7964589667553128,-1.5427048651366222,-2.446779005530851,A
-2.543113072470347,-9.664184472376157,-7.439919721074099,A
-3.0067613895472016,-11.76364649745806,-4.522364971976465,A
-6.569649921344442,-13.442724231516827,-6.604391894302292,A
-6.402144867062738,-12.866256885682878,-6.347366750149495,A
-8.821606768135045,-14.670715180252548,-9.797514256738122,A
-7.700230566031722,-11.408241539850078,-5.893484876345391,A
-7.707392775943865,-9.565719440601699,-3.676338319367966,A
-7.015583390652191,-7.197527270410453,-2.6386647485405637,A
-5.728677895324135,-5.4674324238296155,-2.066723351793105,A
-6.486667145745519,-2.9334421196509637,-1.8617363377969605,A
-9.035663339678612,-2.931842034921289,-3.617588630179587,A
-9.350281316814177,-2.8590411486803444,-2.3236698999723813,A
-11.260534166360204,-3.391738255112493,-2.437450299935956,A
-11.377100713082665,-5.619720026416797,-0.16569753047442864,A
-10.928189959868527,-4.384255431716585,-0.2156665254948811,A
-9.167180664120437,-3.4368464948932935,-1.2541805838406304,A
-8.542846151070343,-3.177153349972098,-0.3322794365053152,A
-10.393258663728943,-4.154781516656644,-1.2001272469169033,A
-9.90413167195984,-5.051221702439386,-1.3549563420228072,A
-10.94599868581555,-9.146260021158419,0.21815093299474075,A
-13.076243199337208,-7.666571151107267,-2.715326600469705,A
-11.684272044663976,-1.4826131932350093,-4.746874319708418,A
-12.158380444774176,-1.859205517540168,-4.091302977147508,A
-10.612841990260884,-0.31437691449743443,-3.4307925626114684,A
-7.958160151739652,-1.8968065455806287,-2.206446463677101,A
-7.597729348799573,-2.134019269096229,-3.375285426759137,A
-7.916288274639596,-2.7689115411798206,-2.4735691423638877,A
-10.305682648783675,-1.3572161570284018,-2.6959486563025625,A
-10.284347746226315,-2.810500647000278,-0.822275531717617,A
-9.901380089768228,-4.955684504372279,1.8191430310173629,A
-11.703094980481016,-3.662773882874828,-0.9403035874869722,A
-9.40983093678595,-1.145721287806782,-1.5050954109691133,A
-8.938970165299596,-0.7936577292453308,0.22511115083771707,A
-8.401209645672516,-2.237115859847322,0.597062000469956,A
-8.739338768997728,-4.32297999512232,1.214129254311615,A
-9.90393333394693,-3.480085539737169,0.2900448145205008,A
-10.649747562481673,-2.7533110914292442,0.38731570204633176,A
-15.055132136614848,-3.3676715580790475,-1.6583703419626612,A
-14.376372879988459,-4.300974491452549,-3.548777295497549,A
-11.926319710257845,-2.888040515363578,-2.571676235132374,A
-9.642452966771025,-0.9896021042936723,-2.2145137939097372,A
-8.714280470176028,-1.2431269962301856,-2.068891208116346,A
-7.72938802008949,-2.362910814221309,-2.3653047135400693,A
-7.296554173345987,-2.495012414660612,-1.4279692836106213,A
-10.20046018865184,-1.679118649664287,-1.7724357427681972,A
-8.030799269721172,-3.439584240661908,1.321232825951147,A
-10.14261956683607,-2.230063114945953,1.8968397258393817,A
-15.52395130743872,-0.5123338914689004,-1.4027075317720978,A
-11.75308303277686,-2.087137255357872,1.0223230992860002,A
-9.996758658494645,-2.0284995595343425,1.094756162982935,A
-8.75785744669569,-2.2447043766176584,1.4055937574334225,A
-10.841977897286158,-4.358081535513538,1.2229404864663465,A
-12.481800839040913,-5.296076512559883,0.2324105237659687,A
-16.023767395465892,-3.978998520041641,-1.9075855131880994,A
-12.941018364076601,-1.730622810551107,-2.2709264880311206,A
-14.355608410364034,-2.448217593444422,-2.5407056808525867,A
-13.58994359127311,-2.5893135523791404,-2.8060883111077386,A
-9.21746567688184,-1.9582031591808182,-1.1910352970200941,A
-10.273741663666955,-2.466269859143566,-2.332510245807713,A
-10.65555723159907,-2.2046155940139878,-2.95208096220131,A
-9.681415037223832,-0.9394735301434098,-1.4370379459463034,A
-8.171422625319554,-0.7440875482336636,0.3063677314733403,A
-8.964143669313124,-2.7917856545571134,3.0303442019140503,A
-12.310501303600748,0.021212853166544646,4.273807132196624,A
-15.249963404478157,-1.4819153645251801,1.1634077633069937,A
-13.973631449850288,-3.8168608633058043,-0.45940432507932166,A
-11.767055656192053,-4.354087594767394,-0.9594140001046217,A
-11.648407460292804,-4.37627731740461,-0.9823102449115007,A
-9.89280611488165,-5.566639534992992,-0.7311306092645541,A
-12.265126382565517,-9.344400334942828,-1.3329977199520393,A
-11.19684778829227,-4.158164565739062,-1.9970941802356683,A
-14.23775597079145,0.5842222493024961,-1.9930837782625546,A
-14.266632022334141,-0.5447556997143731,-2.218982944710053,A
-11.328079116515738,-1.856729780439292,-1.866699437819645,A
-10.302258928116816,-2.5340842483591564,-2.569015917270559,A
-9.273348051203724,-2.1590361032148553,-2.126338090941401,A
-9.269167068526832,-1.5919014033088212,-1.5041665527802386,A
-8.914135188693498,-0.8973074398625585,-1.0181433745451114,A
-10.135620163429113,-2.4466523426915425,2.0403486278955425,A
-11.966050787568577,-1.3968985918680625,1.5056211798290786,A
-14.037259506513633,-1.7602747084589307,-1.6808810292169956,A
-12.794925258910508,-2.987333538668675,-1.6177939225140185,A
-10.729151258675046,-4.30315709133069,-0.6149444579121056,A
-8.929542823624182,-4.274796172557086,0.1796318990127549,A
-9.309963696338771,-4.054096137435075,-0.8520617978294883,A
-15.247596149494163,-5.714326741200929,-3.2234632869140003,A
-13.129562766716083,-3.6410257197220193,-2.5132366434555453,A
-15.029915199854377,-1.9868065136699413,-1.597349898615939,A
-15.13080421292907,-1.7213581823899824,-1.7141571656640968,A
-10.29588142594287,-1.3130940021288686,-1.1817075701746553,A
-9.739568905835254,-1.0727974126339554,-1.4990624225561955,A
-7.602046285107667,0.9374939127066162,-1.6875308863590783,A
-8.587073502688886,0.3571153019244132,-2.6369017307231664,A
-6.803299086612176,-3.7774608279274795,1.1108829352696703,A
-13.947462403488297,-4.0278134397984235,2.784664015133571,A
-17.60153332219877,-0.8350388301378403,-1.3051719419790029,A
-14.721001967719083,-3.3929141477935585,-0.04747876545509174,A
-8.073308219978106,-3.461066202061151,0.8346041354291206,A
-9.940203258299949,-3.0281550119876037,-0.6188824416993263,A
-7.75670784959238,-2.157117704041078,-1.5979062686792496,A
-14.109445732828489,-4.689968388134033,-4.380078593978669,A
-13.339462611301858,-7.245571713639071,-3.3700695555793607,A
-11.905316620884276,-4.476886712586522,1.7023769190345557,A
-16.52197880568927,-2.1469981297451746,-2.360929539043963,A
-9.570096128944193,-0.7872733701313556,-0.46070405038720114,A
-8.724727844933971,-0.303030936494564,-0.34588080404751825,A
-7.807293025594037,-0.2560873484037794,-1.0772966641689514,A
-10.769069182168828,2.517923529240704,-3.4514469606260114,A
-10.542628876713039,-2.6819076510290802,-0.3288604979396207,A
-12.702729092164564,-5.500871697831899,3.9099168870526757,A
-19.236765943769214,-1.2307229898223968,-3.1156542304765598,A
-13.666989975270921,-4.751348971364366,0.9263358763635741,A
-10.430039944348067,-2.913011988420624,1.3658741950553677,A
-8.640568852738816,-3.5478281467951405,2.350084695253991,A
-11.720027644866004,-4.634045660344014,-0.9519623308329934,A
-18.44225294537173,-7.720053842652272,-6.002331849522682,A
-11.686420460538658,0.10395734126134658,-1.7236078031226538,A
-15.592587788913006,-3.011946299847853,0.21960306745538022,A
-12.668168785574219,-3.130198107495016,-3.2131955403739325,A
-10.088005351506133,-2.912106055050484,-1.5425956125196874,A
-10.462720879988705,0.844930379633351,-3.1065311201190435,A
-7.676744507326842,1.8853244306132177,-1.0542492371762697,A
-9.3789980650064,2.2740848247780012,-1.7164185819143993,A
-11.212437425062673,-5.233041249224519,0.11595071737897908,A
-11.48791020229369,-3.4931319198059088,3.655507680525625,A
-20.141569620802436,-2.8041107942250605,-1.3837237961203523,A
-15.002108496722665,-2.453518737625307,0.1624555785854034,A
-12.256585781493781,-0.9395764630717075,3.0742061426585345,A
-8.35220221703919,-2.5985655153417855,3.2547787573562097,A
-14.383341502432517,-8.628223783911388,-0.8568167781420764,A
-18.88128559903347,-8.719533577532317,-7.773152495786062,A
-16.201480480299782,4.507850324842366,-5.823749594679736,A
-13.492563364283724,0.21714348641889208,-2.086540476147685,A
-12.71558511027891,-2.682814660657032,-7.248000259317498,A
-10.979100016094048,1.3485012627459707,-2.2082749935353236,A
-11.681733914585152,1.728338195657181,-1.264342285112821,A
-9.528015651746914,-1.8646527624504778,1.3752572029130212,A
-11.118522322046784,0.4295232811793205,1.4423576887645224,A
-16.823709002930418,-6.8779119810483,-0.28716418106152536,A
-12.950383201407755,-6.059806517381616,0.6967479517672963,A
-11.871254510266235,-3.2000980953618723,-0.6360337632329849,A
-10.435295785916216,-3.7563560660600834,1.2652001659000194,A
-10.84974348183442,-5.838059621519801,-0.1281530852232507,A
-13.123892932416503,-6.9371965257705535,-3.2264295202057585,A
-13.79223975472844,-4.273542486878102,-4.44516926735881,A
-14.693091976471225,-1.1165642473891266,-3.3917177128560585,A
-13.67940138640798,-0.8863556477572976,-4.165433713776603,A
-11.030756945713156,-1.0952124965127836,-3.5700125430677465,A
-10.81333073592355,-0.9024013034753212,-5.234663535233527,A
-7.502658517338739,0.026118188665469683,-1.4480919934427334,A
-9.280621070361763,-1.477526059844798,-1.6780187949466498,A
-7.8398924964867,-1.7445309348873144,0.12584243107010074,A
-11.177363375598594,-3.7117490420165242,1.2155477731585314,A
-12.960873786286205,-6.665845933993295,-0.23162523564888168,A
-12.097120707570237,-7.099372582166578,-0.5307070823316313,A
-10.257622680478914,-3.078281490366166,-0.14577842718694323,A
-9.250156318098764,-3.427529509288561,0.6278248871352774,A
-9.924069549032469,-5.596990381629982,-0.8389665237741704,A
-12.083226089904917,-6.976202394704585,-1.8808248828345175,A
-12.237055948778348,-5.756225502912908,-1.8880548784593778,A
-11.696579461034304,-4.0945311446845745,-1.8504053292114242,A
-13.122855407770956,-2.9278539740019567,-3.428078555683164,A
-10.610389987016472,-1.7212382997640607,-2.7074987867918523,A
-8.929579597766088,-2.07854895987991,-1.834293021121191,A
-8.515242639083636,-2.78880641384293,-2.3926385260269747,A
-8.908193184655502,-1.30614478084882,-2.3504618172454688,A
-9.31432779076506,0.37867146239875904,-2.345510201574139,A
-8.89221004819594,-2.9771374888340154,-0.5461617647354631,A
-9.66930396604463,-3.8802335581675287,0.8292604558286383,A
-12.324246258525102,-3.2073598882982184,-0.4344284483391334,A
-13.717520575943118,-3.571767396223629,-0.458733784526216,A
-12.834964895808728,-2.144440194559319,0.5524978025834408,A
-11.375161312329272,-1.4132775282237313,0.47938492299615226,A
-12.089488244693085,-4.729888820358324,0.33356808049266673,A
-12.906582511195502,-6.751753944502426,-0.800815234070149,A
-11.306673542925664,-2.882935230640559,-1.4924968632290225,A
-13.72750272211846,-1.4892588429875044,-2.1968296816590733,A
-14.896237951704407,-1.9797895556880702,-4.360705150301739,A
-10.832762848236651,-1.84829926547077,-1.6932489428207302,A
-10.106692627296114,-2.1097174511986294,-2.2443880468107187,A
-9.367163872717638,-2.886399758073992,-2.8025662779923817,A
-9.679856923144282,0.28389523472904443,-2.2724170434356963,A
-9.262659062368133,-0.5372286909215512,-1.4718212142233604,A
-8.752726585757042,-3.70604444392768,0.19308834831365704,A
-11.114000198670965,-1.9247142815142657,-0.4531265074795913,A
-11.981700437031195,-2.1440323229595366,-1.0246762102513196,A
-10.97333432386127,-2.6396961801849543,-0.3060597363500182,A
-11.65986464017669,-1.9460489722332095,-0.12163890398209386,A
-11.224369001811674,-1.4009027553861004,-0.70884715708339,A
-10.667673342894773,-3.065536278368128,-0.7333138794432229,A
-13.953918016927032,-5.643605397335795,-2.090662872473583,A
-11.255084164337934,-4.351339819474899,-2.5889295370924623,A
-11.840068478837184,-3.1712479823015296,-2.253653219552472,A
-11.26003049535897,-3.1371464767160444,-2.643458936751713,A
-9.717287538173686,-3.1058821045152016,-2.2274025844665934,A
-10.22415101393606,-2.313106470633648,-2.7502650136603806,A
-9.953696775510815,-2.2013442025638517,-3.249814343791362,A
-9.252287985423036,0.788166353382667,-2.4093087232515145,A
-10.53353527543919,0.5919058354177289,-3.252545121764277,A
-10.713272737757329,-3.3552748977894025,-1.8560221762426512,A
-9.862538150947247,-3.6793506371135396,0.5824421151940695,A
-11.061672816789851,-1.8297992671278975,-1.5794664485755123,A
-11.100357088863756,-1.8789713907715182,-1.0505720379073975,A
-11.841067525994566,-3.1725299055556486,-0.8492954040198805,A
-11.438856256166844,-4.1537592961449645,-0.651043809193047,A
-10.138380309049802,-5.209028212301469,-0.12066604732571144,A
-11.328351948189923,-5.201090310274088,-1.138037708053457,A
-13.472323645309135,-2.494350690667829,-3.340237670723292,A
-10.734025933686599,-1.3521616615545011,-3.0717855006361403,A
-11.709196589861067,-1.936198476534186,-3.2842360550703287,A
-9.152737620324254,-0.7758382653410452,-2.453580140686884,A
-9.630757189171568,-1.1048397247720976,-1.9962592124636875,A
-9.860330028147745,-1.909798088633145,-3.042628525167704,A
-10.067265279605252,0.4212246684523072,-3.2727288506267387,A
-11.017154555118603,-0.15767299473578653,-3.9038018203302416,A
-10.769716144495336,-3.6633612609377835,-2.188261972922067,A
-9.718785328355679,-3.607969498231559,-0.3858616536000165,A
-9.449357404298663,-2.6830814557950173,-1.9059237337341401,A
-9.855853070164095,-1.1533393251043,-1.6046591382496942,A
-11.403707830060366,-2.0643668237648134,-0.5884174324806256,A
-10.584474221870883,-2.7895884457679676,-1.0027825011938503,A
-12.218018533884297,-6.174973866606992,0.2515106602878273,A
-12.9391906272147,-6.339109310536186,-1.81798229995856,A
-10.78424523530828,-0.8163047492667842,-3.0920390270756353,A
-12.515046687174141,0.1295187799188776,-3.4716354495273833,A
-10.209871938867442,-1.5496096317113097,-2.6583412893725034,A
-8.738809072357578,-1.701060089785653,-2.1401110250410196,A
-8.680928282600865,-2.605691633964627,-1.6272127336455433,A
-10.950304105055611,-0.29829103865481676,-4.069263514684844,A
-9.395489229618805,-0.464019475316502,-2.3144786637977743,A
-9.861398027540437,-2.016885493435716,-0.7020011836099957,A
-11.741742028022,-3.062430645881428,-1.8676567821772325,A
-9.917282038601472,-3.318578829373299,-0.03231146162281703,A
-10.160588450839022,-1.8831827336097875,-1.0211784874208878,A
-12.230512080593115,-1.6921854859020202,-1.5187803166099312,A
-12.343159890001884,-3.340236263451425,-2.61512240175789,A
-9.863957805692584,-5.351455118685901,-0.12249652499389746,A
-10.935292513066505,-5.512993095902117,-0.30549751447965184,A
-12.259190328600235,-2.5949122730443057,-3.3560334334678266,A
-10.448300400278011,-0.5649778221457843,-4.112995262221922,A
-10.11794609774307,-2.8333869745524223,-2.877640971138972,A
-10.671456156832301,-2.663424410960182,-3.313351496909491,A
-10.365040052979943,-1.2456856334162152,-3.21811219707543,A
-10.003528025506206,-1.7912376505822312,-3.46835085960539,A
-10.17835604013459,0.010352495769909369,-2.5578624396502074,A
-9.626199319724488,0.1146047929440146,-2.1230075830953576,A
-10.288042923519853,-2.2400842514306625,-2.637125137595764,A
-10.469067547441048,-3.3260386113139053,-0.8066295473166508,A
-9.802475479105532,-3.559124065779426,-1.1036636706089082,A
-9.902511812922207,-1.860164558596651,-0.8993190091828992,A
-10.741788172636166,-1.3934268947454787,-0.7055698583646172,A
-11.519176398306044,-2.7952398126275098,-1.1234237471285486,A
-10.185315999502878,-5.163153807156562,0.076321957274297,A
-11.861254345708423,-6.685880314721818,-0.801495784532076,A
-14.980206614107587,-2.3317436976091592,-4.080671868115002,A
-11.976623282339995,-0.12126758550763905,-2.5528281554820245,A
-12.431622580980841,-1.0935584912464014,-2.5867063408614,A
-8.39787819906022,-1.788631217164258,-2.1731763171763068,A
-9.284392344212288,-2.593332265212067,-1.4297100290042792,A
-10.968922779759563,-0.1567639228575322,-3.69919564102807,A
-9.517704650565479,1.749235493366,-2.6292298696385186,A
-11.510984307933622,-0.85349392913601,-2.715353982962998,A
-10.881736052500697,-6.486273282332687,0.37217591253578425,A
-8.834002580571404,-3.2431466614302793,0.3483831689009967,A
-11.570157421931926,0.24195623579233033,-3.0320464858624687,A
-12.542249125639255,-1.0032772865728274,-2.307346928954026,A
-12.086708147629832,-4.018709052136091,-1.2981830050172418,A
-11.382451707805533,-6.9044616801342364,0.3808073455313631,A
-10.909219579618886,-8.207111949201941,-0.6597844282275949,A
-13.369135576832543,-3.916334715480995,-3.8503373777692085,A
-14.406700755249522,1.0581216952555954,-4.3183327351069405,A
-13.052076655200466,0.7968736048164723,-1.8215332133494033,A
-10.729565705238223,-1.8539877716226796,-1.1543290275661928,A
-9.541916230531163,-2.484560051815442,-2.2948053018477936,A
-10.319186424112727,-1.633479205368712,-2.65759806139038,A
-10.656256132932834,1.3586963272934884,-2.3177375336132235,A
-11.248634894461247,-0.7152172228759822,-1.3900470444333557,A
-9.041231188868935,-4.987597811029307,1.161828105633556,A
-10.326366598911601,-1.209465490498284,-2.0873803678368117,A
-12.192608666536971,-0.7764141916566732,-2.18248773695167,A
-12.797740513719548,-1.57274541780366,-0.7040740002022013,A
-11.32439085442856,-2.9163059372433535,0.7357012857234928,A
-12.121626317668834,-3.6058223488619254,-0.0343768617063475,A
-10.470979597444536,-5.545242475174906,-0.2275671016893098,A
-12.587696677685997,-4.919850403244426,-0.019619712698252134,A
-13.25414778924417,-2.3798278362431877,-2.3179012654054763,A
-13.318783074278986,-1.27806624035966,-3.7692054416028813,A
-11.321406962806106,-1.9346484827592032,-2.1343677047455967,A
-10.359668121013957,-1.2904377861446905,-2.994072334820507,A
-9.221773935623984,-2.7184912859076644,-3.3003725105326214,A
-11.318356519466253,0.5408378689503263,-3.3815513956444385,A
-8.799684971854049,0.7682017910072461,-2.005963249547776,A
-10.272869066990166,-1.29469169346051,-1.1796890553531183,A
-11.273559794692298,-4.314925546538199,-0.9544219144830539,A
-11.080890559283901,-2.0423507820636737,-0.5313018929760922,A
-12.059458616646058,-1.8588592807736855,-0.45737890294165956,A
-11.382220705280941,-3.2715189652744305,-0.19460287421379455,A
-12.131646895683783,-1.970837900835621,-0.41267203587912993,A
-12.228498590494322,-4.693968159377112,-0.6173227431512313,A
-12.215297771732809,-7.59228324993569,0.0784379105456426,A
-13.17612091045011,-5.760706862535752,-2.3135065640826467,A
-13.086927064302555,-0.32212312973361984,-4.081484840620063,A
-12.984244084002125,-0.7082162323984571,-1.7027347106028536,A
-10.835221837914142,-1.492424621973242,-3.027498202042213,A
-9.016675959148277,-2.2429520239808713,-3.015830067637993,A
-11.764023152862983,-0.9667036919220375,-3.7044222733867485,A
-11.150779813203055,2.622384043408226,-3.912146797175391,A
-9.972414675320245,1.1135718620338086,-2.675982180985516,A
-9.445058274160598,-5.473965168920421,0.2288525677851401,A
-9.414104118444463,-2.6893991522103247,-1.026461711587532,A
-11.587034082996604,-2.2398120182829486,-2.2967826559606874,A
-13.001073023971827,-0.8222548151178478,-0.6904108357237585,A
-14.734175162837776,-3.7446204269758168,-0.2819841545569677,A
-12.460083845533303,-3.9048237232324174,-0.3679533886760392,A
-12.913042392423947,-7.60111059435881,0.8335304946416026,A
-12.469354124127088,-6.276622920971668,-0.9611413660356476,A
-11.658235531042562,-1.6968349449269238,-1.7745448051692634,A
-15.13693919986965,0.2390588653564617,-4.354923729729042,A
-12.068032249745283,-0.35469470861376373,-2.62247728335606,A
-9.763558669083547,-1.968141371503353,-1.900991232955609,A
-8.962861988686809,-2.3533521347542252,-3.7449429912267553,A
-11.500440527200976,-0.3964520808465089,-3.972317207506375,A
-10.54110966053378,2.050489046665025,-2.0716851023097966,A
-11.687009974915497,-2.399871378069278,0.5837153036597085,A
-10.744464402906754,-3.0093960411521454,-0.14395396600548313,A
-11.284093041911131,-0.6651116991675772,-2.020408858808208,A
-12.705165193980012,-1.232742974875497,-0.819099257219346,A
-13.513221014970345,-3.3491065375789675,-0.9390161141268335,A
-13.25102952617703,-3.8719493364284725,-0.6769213420798446,A
-10.778854002171537,-6.19099252621108,0.5060831107961213,A
-10.948864469777304,-8.79930745000707,0.25845140142545736,A
-14.015785022050618,-4.1792687374399,-2.7599455852080794,A
-15.184488503412298,-0.577262884857498,-3.8971424517472735,A
-15.099724434262251,0.02374617915634698,-2.5690436854564016,A
-10.656499512876241,-0.279814374236474,-2.034195614099535,A
-10.373106227695622,-2.5982688833141263,-2.8045067809924245,A
-11.436160452292794,-0.2075844223371674,-3.269841529901378,A
-10.20687796528261,2.911439677319747,-3.803144425136046,A
-9.80903800981039,-1.4190960592879076,-1.081999163172435,A
-10.541552352209806,-5.432870163233736,0.799421997731412,A
-10.519940755135467,-2.189325521751097,-1.6560484122531036,A
-12.826190288521586,-1.0856173801935511,-1.7882377583364906,A
-13.477167099435173,-0.49346582933040284,-0.4286706936932796,A
-14.653658955169782,-2.4291776067941324,-0.714210750898189,A
-10.732200904293537,-7.505531772338206,1.217376637631333,A
-11.589043651034453,-7.858165927959022,0.40037943642641977,A
-13.881087205371884,-1.6248863146802215,-1.890494568574005,A
-13.87637801995863,0.2012231407490878,-2.6504162170504486,A
-14.053953513206212,-1.0568951187401272,-2.8036741696259924,A
-11.846053474973885,-1.3889859106595042,-2.7510627136345733,A
-8.675849521825464,-2.592888079872508,-1.671903992357098,A
-10.563439739050265,-2.4341048221264714,-1.9642321755993755,A
-9.620353117833679,1.6615933678454053,-1.7257169413769429,A
-9.182500438155827,0.9289662327600733,-1.9487920264827192,A
-11.360438001357645,-2.594554080125967,-1.3494051922570025,A
-11.648939771443914,-3.390952727230719,-0.4516001776875021,A
-12.203729298124506,-2.758978507484225,-1.383887908937247,A
-12.00341551075863,-2.0414469886307067,-1.0564244888806593,A
-12.125423739150106,-0.7055796678816021,-0.8781507699737701,A
-11.418216541455324,-3.768959979160064,-0.6286788251400525,A
-11.012340632729867,-6.739921275285524,0.704046449397915,A
-13.054400274171051,-5.918156522075157,-0.4801512870503333,A
-13.18876605460223,-1.995996466528669,-1.1400041660825564,A
-14.331527411684979,-1.7270357286837676,-3.060380659356108,A
-13.076916866686656,-0.8559030196300643,-2.0044954430291044,A
-10.429399442810594,-1.2976040610200508,-1.847316475840755,A
-10.096480314380512,-1.7308824091998325,-1.7203231147517162,A
-10.594483782405018,0.13038859417145682,-2.5477683561132642,A
-9.306321211557796,2.224408620411086,-2.7327781751173204,A
-12.441781851495202,-1.5538993111165926,-3.430341566536175,A
-9.939999806070622,-4.349927246311847,-0.21202100895998868,A
-9.937807052080897,-3.8772966438462446,-0.17670614490838996,A
-11.529789175098665,-2.476307998942668,-3.0717242628020998,A
-12.04502343113457,-0.5378804361324399,-1.2267678919448457,A
-13.27773925209982,0.291407758785263,-0.13240316918235373,A
-12.004248071237297,-3.596543405674715,0.5127410004250021,A
-11.759047653903098,-8.623267975660328,0.7222752140399546,A
-14.765020514475538,-5.381672107784102,-2.8906315737901975,A
-14.12803925993058,0.5951045137783871,-3.982588732444044,A
-15.974359147421302,1.498375259432788,-3.8037126325964685,A
-11.280087262399316,-0.12078186004052849,-2.4192900652349056,A
-9.62133307417676,-2.1415177660115594,-3.1113265716737004,A
-8.541998772338703,-2.9115280874793035,-2.4530673998934778,A
-9.050756413949692,-2.0981809199733528,-2.879252718027214,A
-7.429509248309938,0.49731757002871485,-0.39283573021498797,A
-8.333088527477228,-1.0558012364713985,1.0395504621345444,A
-13.170558690136735,-4.5302716775903225,2.435943113582401,A
-14.48885730819254,-5.510157681393309,0.9472015039125992,A
-12.266159898012996,-3.355227432423413,0.33740126380787816,A
-10.638272339493783,-4.2614151637597555,-0.719779775538796,A
-9.950990228115637,-3.5475017465737624,-0.8110467389028826,A
-10.539290730908304,-5.693303175991315,-1.799562750170997,A
-10.981620605019392,-5.966944560811921,-1.6154915806060899,A
-11.848042043998209,-6.507157637614481,-3.0819115337313034,A
-10.660303224206553,-3.7785610093064887,-1.3747309791221107,A
-15.11359479250118,-6.192801863430982,-4.598389477978778,A
-10.922827504195661,0.645422115761362,-3.0446217583423287,A
-6.287508411755037,-4.122999885314908,-14.205074872162943,A
-4.869424214877099,-6.011790010502685,-14.366805964435297,A
-6.533805902970425,0.3471241260412265,-5.2173219109745,A
-5.18617421025938,0.07153948816441302,-3.7024220171269344,A
-4.52456987981802,-0.6824618292230702,-4.9771763780025635,A
-3.337261837945744,4.492454300658496,-5.763557847427391,A
-12.232853262532892,-1.5240910846011384,-3.0440684937953124,A
-21.845228567428293,-1.6389159823172599,-5.095114793047346,A
-9.731641658300761,-12.600079938651698,-2.325241212293574,A
-10.911063768416215,-8.77970702805187,-0.17692470969659402,A
-9.515360075026797,-1.5478252314090692,-1.7705101388645326,A
-11.665849706322708,-7.544644012073028,-5.203257683629081,A
-12.691426278748638,-6.601804351098727,-2.403063174250369,A
-8.185872625283086,-5.132145502850668,-0.4582401670731747,A
-14.282176174786176,-3.615829529503791,-2.4261219814694215,A
-18.200026199325155,-3.3051414132126884,-5.307197698415573,A
-14.61661572560195,0.658987436598317,-1.8680876678167453,A
-9.96373367908866,-1.4423260380994958,-2.0092874006601495,A
-9.533207590796808,-1.238366915506183,-1.0840535531836168,A
-8.016268269981232,-0.5209971794815418,-0.7591180353031732,A
-8.261787304632724,1.0643976273576559,-0.141945130288465,A
-12.148956528063595,-2.8741232124138123,0.5633523198285973,A
-16.780978220184895,-2.7415066875389993,0.2505764565752549,A
-16.225254079134498,-3.8389579694120677,-2.7401919406389856,A
-12.778646445503654,-2.649664949542796,-1.7951041175140703,A
-11.46483696006118,-3.721712350816588,-1.8233281220836108,A
-10.434659360046505,-3.9427056339770448,-1.5567560407449077,A
-10.261745548665935,-6.606167220279091,-1.2252694892094245,A
-9.936083736822969,-8.423786526444278,0.05959729848012211,A
-14.379807153316438,-5.3494541576634225,-1.6193893719458683,A
-18.176417556330936,-1.0670422717782624,-4.29716132508405,A
-16.874042684064637,-0.3684098919587144,-2.709550265670006,A
-12.922991361089057,0.4134685709010131,-1.6856470891636028,A
-8.86642080790461,-2.2701268512658905,-1.569439893278868,A
-9.700297210427394,-1.6552325569691326,-2.3869974730156533,A
-9.040380167321137,-0.4371888485294503,-2.1986245901164208,A
-7.8547428509484005,-0.1378716047496122,-0.21494954326301957,A
-10.39498664057206,-3.144306087902446,-1.3732128147040903,A
-12.374307844891192,-3.217166495168237,0.3742903422607887,A
-13.312860711671112,-3.833725256446528,-0.40788733081265766,A
-13.861985026662143,-2.0709743847383426,-1.4341987289019862,A
-12.989294727116077,-2.029236189598283,-0.013662658622362569,A
-11.579221845837617,-1.6228237249202468,-0.08646315709284151,A
-12.036563926633486,-5.140221888563803,0.051115004679108504,A
-12.824328069197799,-6.872300603369605,-0.1566073679848001,A
-11.661415352245584,-4.131300647346631,-0.8309124410169406,A
-15.962932476920095,-1.0635280151170448,-3.019877741576983,A
-15.342058699971055,0.0818888226221001,-3.002120000496211,A
-11.03730591205529,-0.6317732793634437,-1.6400475084458996,A
-9.858195449489559,-3.164778180507976,-2.186686714292347,A
-9.581017406828133,-1.9546472943246254,-2.7177912731800498,A
-9.810864029102966,-0.12859256116892198,-1.7740883585017526,A
-7.5503021618101585,0.007766965429577436,-1.2511622456834148,A
-8.823092983148532,-3.650071936527047,0.41182440036494183,A
-13.527021457802045,-3.409210907379581,0.32482418281054465,A
-14.32339519757089,-4.325888328228892,-1.5634568633241812,A
-10.829533448185867,-0.3834005751308574,-1.7133571816693716,A
-12.225047207674702,0.4372635795345141,-0.7761927100767452,A
-11.366570450346916,-0.9315854279944485,-0.1217551870148085,A
-13.315534224137625,-4.634233707285029,-1.2921359711530604,A
-13.072168476941519,-6.357504720661399,-1.1414932740977337,A
-10.54883528182224,-4.116355316257737,-1.1727702315019388,A
-14.765450159362056,-1.3284992078218425,-3.445327697870456,A
-13.299565169847192,-0.33085920077464603,-2.2785888948417847,A
-10.18328295701748,-1.783020204675968,-0.7761785056937661,A
-8.884106559892144,-2.888703308185569,-1.6037638199660715,A
-8.558709507835252,-2.0598190618730055,-2.0115285860492564,A
-9.900654744235663,-0.7111413088969648,-2.330690484759527,A
-10.443337910043509,-1.972419500350418,-1.5449504022271439,A
-9.003660391046033,-4.484424089726057,1.0527295051340897,A
-10.45501825505853,-2.3945318138927685,-0.7577766376807444,A
-11.28323936531903,-1.377082853836745,-2.4577169031972272,A
-11.900852968810574,-1.4574816840753024,-0.6954523802628281,A
-12.620117851008253,-1.2716117683819814,-0.3858824589033921,A
-11.851881945954126,-2.37502641670584,0.555015036666115,A
-13.25812961416164,-5.992280281635384,0.10053119123827942,A
-13.860734231216583,-5.0711558662542355,-0.980089047891179,A
-12.571913769156236,0.07446609410124135,-1.5555381369241401,A
-13.478683175599093,0.5857609731591973,-2.6881822476276627,A
-10.094406141398535,-1.77001822804581,-2.295437249719704,A
-8.518826631604306,-2.370118824561429,-1.2846322801098324,A
-9.145994198325889,-3.301951211160668,-2.0080533229358606,A
-10.197969950834674,-1.6276657887449935,-2.540900047099568,A
-9.524782180919727,0.7557489554709197,-1.6679023120065681,A
-10.512244415064297,-1.3309255312927355,-0.7902112045551631,A
-8.35183097676851,-4.3856647574023375,0.8177286872073994,A
-10.589175243617133,-2.4488170648100467,0.5306971643081951,A
-11.045248459192331,-1.2705035140756376,-2.0964415685176,A
-13.609126016940268,-1.7950733549283377,-0.7072010639293593,A
-12.337143900136667,-2.0605417878227943,0.5538652060193695,A
-12.033322575586203,-2.7080037613809247,1.2340230932312255,A
-11.501740970761704,-5.441768934836459,-0.21167580742916953,A
-14.251344390508432,-4.751524716058226,-2.2879946772788395,A
-12.346751862837056,-1.3550599288463525,-3.273061469095234,A
-12.864702927488276,0.026319911305079796,-2.5617331149324776,A
-10.364504760022898,-1.1822511145844925,-2.1851246282731727,A
-8.594307516686781,-1.5367762162020657,-1.5803692921384251,A
-8.06836070822944,-2.4317805254771585,-2.0604752306634797,A
-9.357522986356782,-2.1029802491025604,-2.1620933285221744,A
-9.328969768845232,-0.6706171503154545,-2.030705063737869,A
-10.260277413229671,-0.9568828879492681,-0.9613149072052395,A
-10.832371799328817,-4.100090300544132,-0.2259155719552259,A
-10.48238027497096,-3.401580418511562,-0.0666503825031542,A
-10.290472004747205,-1.6533060599859564,-1.587411733330416,A
-9.928538153399563,-0.5454365563622359,-0.18589424320254055,A
-10.460636131761667,-1.5728212312132204,0.1764171032659872,A
-11.29411090679697,-2.716015553157616,0.16713063890678917,A
-12.340400817487899,-5.1557655175922905,-0.5353328363633109,A
-14.715311248124193,-3.1790444731144483,-1.4430394554797241,A
-10.705570446487831,-1.022516582141084,-0.9691717457805052,A
-11.44092830811595,-0.915600719512751,-2.210438607944352,A
-9.576310315543454,-2.234254868781411,-3.388162432335269,A
-7.591761974718469,-2.238000603141062,-2.028927804931509,A
-7.584547289757954,-2.844047605999024,-2.778368020784806,A
-8.560575875926647,-2.780849899073565,-2.938901874861754,A
-9.75496397957114,-1.469397144574725,-2.836164601703412,A
-12.236819048732047,-0.39409739303599106,-2.279747716402532,A
-11.139102673298506,-2.7882693947915067,0.016534470230761107,A
-10.086581450437443,-1.3874987021667076,0.19589899699512062,A
-10.353765832669652,-1.9932461985478724,-1.2530616090788862,A
-8.074100192409933,-2.301322082769953,0.0030141592323792246,A
-9.404033732016725,-2.8750935985469814,-0.4849654332721968,A
-10.627008096457951,-3.2751181474420306,-0.9944034586661732,A
-10.388441322762183,-4.023001038904299,-0.5211208052270365,A
-12.447568248839687,-5.50226800906869,-0.6080489787920355,A
-12.077818088021532,-3.9709190348917964,-2.7113714122292687,A
-11.220184280581732,-2.7001564753919207,-1.9554311359931558,A
-11.1824693964079,-3.0995491281341874,-2.3557957666219504,A
-9.263110517865634,-1.7496018277444574,-2.1277719910886375,A
-8.076055364202071,-2.2445137672022555,-1.465994196324636,A
-9.683644394929251,-2.5779456092844186,-2.331122258459223,A
-10.797646537565807,-0.656195115983021,-2.757658875276001,A
-12.092719688796391,1.4157131612898104,-3.3451253932946963,A
-10.305265815019807,-3.0761059585797117,-2.064645388700078,A
-8.436959627627843,-3.3154526578824,0.9336870390437872,A
-10.945420929000402,-1.3722226201044216,-2.813714069665761,A
-10.448067815976867,-1.4508395801464642,-1.4486239679814314,A
-11.003981783043786,-2.7228419369833996,-0.3830783294714846,A
-11.083946141867111,-3.9025727485798525,0.0663136881270004,A
-12.959443595227565,-4.440597453934291,-0.05938947450156601,A
-12.487856706153675,-5.409237306654851,1.1365089006869267,A
-14.366940142639395,-2.7311160560497303,-1.8745647864771215,A
-13.676007673237752,0.6900032500957587,-2.905131198149929,A
-14.130694395913567,-0.48002880135128634,-2.8608535290886907,A
-10.559828192318294,-1.3744288243457932,-1.5936296806188979,A
-8.447694167869479,-1.9390793070321544,-1.5843438934455334,A
-9.075795115099147,-3.229314162063181,-1.9383163690090957,A
-10.122721408265418,-1.4149452863998189,-2.3037802060829633,A
-8.81817482003684,1.4412170604014332,-0.9265038514316153,A
-10.055623170140251,-2.520618301022784,-0.6170238437273261,A
-9.616575092198858,-3.073021627486741,0.46593794578887165,A
-11.031493789398985,-1.7341266653330052,-1.1103641439949936,A
-11.702347212054239,-1.079267431889206,-1.3338868470908731,A
-13.097831386874377,-1.9020356696183685,-0.2360196114816406,A
-12.416763429264222,-1.8045467855846882,0.5707326906791972,A
-10.80449151071251,-3.381799236909038,0.9523554208798485,A
-13.152517945561979,-5.236859329955265,-0.4513541640752223,A
-15.284406763487839,-3.407954168913682,-2.0802605603692474,A
-11.33106915996005,-0.8822665738616018,-0.5729441349513026,A
-17.134142385853778,-1.5743287306194191,-4.113001051406821,A
-10.489297970355281,-0.8974439116129559,-3.160894341437345,A
-9.480976614590874,-1.8790993305171875,-0.9593433393321307,A
-9.006808226737546,-2.496469327192523,-1.6773552727982939,A
-10.576450700282544,-1.992515289308812,-2.3806962422225384,A
-8.96928529806102,2.2793786352831438,-2.186821912111712,A
-9.276044973810817,-1.7591680015394529,-0.5851976864116152,A
-7.465903718942477,-4.996461092383324,1.3804720151775387,A
-10.701259318067168,-1.4800338769751746,-0.8738173300144352,A
-12.312225591494055,-1.3196416483783597,-2.2665346024957054,A
-13.038370259416938,-0.9096484670513647,-0.6568942043249276,A
-13.342522307995885,-1.71799553347434,0.4033600315157007,A
-13.42424274473767,-3.2139070679315904,0.8499597638969885,A
-12.6012784094023,-4.532492769497384,1.2538878069511232,A
-15.397643480464335,-4.402437642385817,-0.06742362405508252,A
-10.937318198350178,-0.28884982676713583,-0.7413837944568686,A
-14.223279430412957,-0.22463881137203418,-1.7026617343918111,A
-14.8205213162082,-0.8675780570678059,-4.14916153979369,A
-9.49606659131398,-1.9457346744268105,-2.3802485466146144,A
-8.37734646786449,-2.9782132154298466,-0.3890950891191664,A
-10.812348430349001,-3.7932822333159555,-3.0109568109022367,A
-9.71294573879904,0.1216975903196127,-1.1708641411720322,A
-8.88534156755347,2.3893456426921067,-0.5567576080094284,A
-10.382354561846519,-2.9615205663505395,-0.43472634074002015,A
-10.958075566020002,-3.1200097967573965,-0.3895382883498262,A
-11.57648845326998,-1.5994680257363314,-1.9220493079415786,A
-13.361008141535129,-2.4655978089931647,-1.0671116969544319,A
-13.978957195741883,-0.707452930751074,0.8835112666125929,A
-12.727124312363399,-0.7465155044695415,1.7828864305562842,A
-11.446888168680346,-4.777630402354695,1.8381254340888609,A
-14.066977157338398,-7.566141540896749,1.0657531331398573,A
-13.742754563472586,-1.9503233813039365,-0.7571959463300612,A
-16.086499561191513,0.1290701722823791,-3.315372782721175,A
-12.568940026458407,0.1343313116767518,-3.4527079611668308,A
-10.098697359135704,-1.7898331847600264,-1.615371004023684,A
-11.019797357319135,-3.3585538982144563,-3.435248427619839,A
-9.02233319872467,-1.8182077962617578,-2.1972873355734337,A
-7.679323031745968,0.943105987532898,-0.680647876456102,A
-8.071059611718367,-1.2616401669507993,-0.696891446267659,A
-9.982808046752758,-2.5640773541520057,-0.10894636406007467,A
-13.35163584334463,-4.863873899748651,2.601177281564609,A
-12.591208765381129,-4.136391548272997,0.4107616504659026,A
-11.908173453386892,1.342900988168698,0.67335693736348,A
-13.202896500095342,-1.2866562185018688,0.5061558397225989,A
-10.87050767932425,-4.396036753119403,0.4207331228083903,A
-12.182156327864242,-7.153982620458027,2.8124210553874756,A
-13.679020738663855,-5.369323011299074,1.6267052269254978,A
-11.085207198826364,-3.0655353542796084,0.901137909044911,A
-14.455479994718566,-3.935247548823061,-1.6858943375709936,A
-12.32486190768884,-1.6124813370852953,-1.438196442080293,A
-10.868479080294577,-1.5505668503028818,-1.6789293169826665,A
-8.913454288607467,-1.4950066389796632,-1.4946553999321153,A
-9.310212430124807,-1.2817825306633803,-1.6038212045262348,A
-7.874314188069124,0.667016120771495,-0.2608545533573715,A
-11.187659263064454,-1.1345577086565057,-0.8166172711130059,A
-10.370882414082708,-2.8981105896018855,0.9841356424872095,A
-10.061076442444746,-2.299884458645184,1.389203118444713,A
-12.138643331949604,-1.561918876597909,-1.5537651435550865,A
-11.14812021401187,-1.2131758339652874,-0.0825336380914389,A
-12.262398140439476,-1.6551420278554032,0.4913418094921085,A
-12.036757045053928,-3.0324967864320227,0.875454961486597,A
-10.9016208393616,-3.9283060211144907,2.4513346857261515,A
-13.009787687291174,-5.581488950746063,2.1336802593016126,A
-14.877943018068274,-3.2274077738854445,0.3150347283113137,A
-13.561258760327934,-1.259900289766565,-1.1880341375724752,A
-14.308229473760848,-1.5804591650595774,-2.5062061938967037,A
-11.971980242729598,-1.3051550206759743,-2.5167009570574,A
-10.0931499639286,-1.1933182912500282,-1.6291321820029128,A
-9.764705262299668,-2.430760294701554,-2.1828071035596044,A
-9.718925417844188,0.8677654329750754,-1.5226294048460696,A
-10.189560934335196,3.3943344727655282,-2.3150678915986243,A
-10.421176738959383,-1.980569689556092,-1.0172548179506897,A
-8.427024939920305,-3.0875383573561797,2.1908918529652244,A
-12.401481309454201,-1.8769752183999069,-2.0561758777674712,A
-12.681387680408736,-0.5526649897148483,-1.0883679173088485,A
-13.71674484140471,-0.3153677957626399,1.018403548382521,A
-12.916711825734636,-3.2017622805372996,1.0449828188318775,A
-11.64818142105537,-4.221762125523157,2.272252384431664,A
-10.627843716375649,-5.443012511545226,3.5528980552483174,A
-14.713923150306599,-3.8966270384544766,1.4089828436075458,A
-14.676587104840245,-1.8817017044201811,-1.0037366099428784,A
-14.336825731392683,-1.493776292966969,-1.8834586136842941,A
-13.822939516186956,-1.68584403931592,-3.307144521110758,A
-10.680667851010764,-1.0732816969679588,-2.166818648365236,A
-9.701468167601332,-2.890001139449086,-2.0303252626603006,A
-9.083422400797701,-0.9698148694895012,-1.2465482563335726,A
-8.345297047174231,1.1129485481231225,-0.6465367213776524,A
-9.699027317480004,0.24236796224314985,-0.6031608041785181,A
-9.786447437704627,-1.2335854375613995,0.6911675723363467,A
-10.862042807070202,-2.335322641852912,0.9785609103383053,A
-12.17344926456356,-2.5958648136243005,-0.9832532866585204,A
-12.325577208149276,-1.4593842289881596,0.03308951561203947,A
-13.077779494291951,-0.734708567932656,0.18040722987889068,A
-12.382471671822268,-2.5496266268544354,1.0800285998012855,A
-11.835047314794542,-4.49644557695487,1.6236804660079966,A
-13.397176042353689,-6.017877934464906,2.1259176999609166,A
-13.819656396079786,-2.8912735509574365,0.28095365019638807,A
-14.019175689578177,-0.7395052778331579,-1.3904247336204458,A
-13.575512767082667,-1.2413441990805816,-2.3446771009311167,A
-10.950501663592954,-0.6392546138055009,-2.1467157577294818,A
-9.197917710541319,-2.213379215266807,-1.94090009500932,A
-9.401113868185035,-2.7035786099257937,-1.7305680208599472,A
-9.059014550584726,-0.13873768430211927,-1.5744691796254744,A
-9.723202923475155,1.9422437615829768,-1.3186159353657918,A
-10.55057075206934,-2.019730344135519,-0.8400423854041497,A
-9.452128451791637,-3.6766138639611974,2.3143404976693662,A
-11.018735724555723,-1.835698084833151,-0.9710133759000796,A
-11.368431373695985,0.8427792795230148,-1.3391219412210973,A
-13.266584447583481,1.3607033928546806,-1.013257314799207,A
-13.69589866582781,-3.8623460185330734,-1.6186931248920795,A
-10.754113900158217,-6.302266404846301,-0.24632262710837421,A
-13.309639515691932,-7.746717096501664,-0.7202550825605346,A
-10.753753059465058,-6.888769745403128,-2.8078341487184666,A
-8.890924683476237,-5.107007595837088,-1.4321797085782502,A
-13.260201454700725,-6.700919800607667,-3.618699318838981,A
-11.774160985489898,-7.820037928735245,-2.2601070352957775,A
-8.089124667718774,-4.529958670592018,-1.8832847809639273,A
-7.098060282621628,-0.9781546332509315,-2.670752009063376,A
-6.8503788291923735,-2.2317747714664917,-3.056095486965723,A
-6.328813681031366,-2.852246885241807,-4.206486581347454,A
-7.775293928771013,-4.234622803491002,-5.027722042701823,A
-5.173837964382953,-7.516022269977301,-4.721667048632139,A
-7.993384690973523,-10.848390827221431,-5.034418653840934,A
-7.1875953090821145,-8.205326958581846,-5.19068304081475,A
-5.901013938325817,-7.253606802466775,-3.8281048075822732,A
-6.3643655542412985,-7.163484677889938,-3.868716496405279,A
-7.486810807184996,-5.877177488890171,-3.7969780172993515,A
-8.161626157518691,-5.9893397384192975,-4.690951702559482,A
-10.220580013329105,-5.739878593236857,-6.043718113340649,A
-8.204031525096058,-5.53601820838993,-4.554050256261856,A
-8.68095218109884,-5.576847451299698,-4.070401081555658,A
-8.690473573933978,-4.8763714478362585,-3.398484606726431,A
-8.747810717717732,-3.966388185573386,-2.896205263822153,A
-9.138325536108985,-3.907304043477432,-2.62978788877094,A
-8.859552687222495,-2.792914299144483,-2.8765389163003032,A
-9.296459797664188,-3.1057148782623534,-2.311540657100426,A
-10.33018198057564,-2.682649340216512,-2.639030792449223,A
-9.802034313760254,-3.9281033939648182,-0.29075616198654924,A
-8.677294272243383,-1.9281243525057083,2.171376759542203,A
-10.623357635747512,1.0978800914783233,-0.7270159476499077,A
-10.330934362136684,-1.061552882268028,-0.5725497631570416,A
-9.788058522564635,-2.9520102957220935,0.9069460784212897,A
-10.264348145858486,-2.8607247051755595,0.2495001420414474,A
-11.385045642476324,-2.872323338901837,-0.9511371818868543,A
-14.445850817767937,-7.219792368643367,-0.7281131728569379,A
-11.747714930767534,-2.7907338364129584,0.11783608056620971,A
-9.911641346328986,-2.503584877036032,0.450812249994908,A
-11.7957836783485,-3.0398738208727094,-1.573114764804093,A
-9.692169667124483,-1.519655402351131,-1.0767420412498674,A
-8.61720792038946,-2.893152554109038,-0.7813690981875884,A
-9.120462233035527,-1.966934659109619,-2.0919314448549127,A
-10.094367939348981,-1.7112122179974212,-2.0723924817496178,A
-9.813505952613164,-1.1461064855829302,-1.1649467626203032,A
-10.145674322213868,-3.983570584350144,1.33671234189107,A
-9.3062774955549,-3.9043235034165686,1.583290547564179,A
-10.509278147363649,0.61922225653206,-1.921384081937081,A
-10.33238397918992,-0.6401184891178865,-0.7574720450685937,A
-10.363817554031307,-2.4916362178723057,0.4995569250279397,A
-10.766483752506902,-3.6750098724147415,0.7470601084602255,A
-10.819875820143174,-3.742632442373021,0.08115343916468334,A
-13.194227321470738,-4.289457312681867,0.03657834680299582,A
-13.230551279213199,-2.506562941054164,-0.7560970977745016,A
-12.655287012454274,-1.485702961965119,-1.6545649186026223,A
-12.287291092106498,-1.6082343573156876,-1.8685001509203938,A
-10.41733665791934,-1.2777965898995889,-1.3600380208094336,A
-9.387295856620401,-2.3575619930700973,-0.8597574399476935,A
-10.621330711377773,-1.855147380970797,-1.88004463429922,A
-10.503341626191164,0.650026165450455,-1.9084585892551358,A
-9.581514547246602,2.010449912632943,-2.2633762613763255,A
-9.735833580754225,-4.453843672415781,-0.9758446808520789,A
-8.830454072373627,-4.131190802359772,1.2277740504624495,A
-12.68129235361433,-3.30264172783058,-0.87807653748242,A
-13.10385456903286,-1.8037836903364104,-0.49510785401029656,A
-12.85962112615893,3.3353524182885708,-0.03472834949699691,A
-10.177143841080142,-3.465617717648396,0.42982310407804286,A
-9.451431625406492,-5.788240711909365,-1.6379111257487964,A
-12.09161215036954,-8.552394830935524,-0.8124789221819194,A
-15.746128226077456,-4.476053417759964,-0.6085600597983463,A
-12.924575180846734,-1.09484309814222,-1.039936331263363,A
-14.660735708233167,-1.1596392833691727,-2.006082913145574,A
-11.907668312143409,-1.604973701772392,-0.7206819015361087,A
-7.693408342136519,-2.329359158491965,-0.2772355045020696,A
-7.358633412512597,0.24733811570972872,-1.380729286092555,A
-6.044182086422077,0.423119465273262,-1.062787974481038,A
-7.374960753558286,-0.9936916552200844,-2.08605048337216,A
-12.639515227174957,-3.611018523896226,-1.9436563404519425,A
-12.091513641776814,-9.194235692553285,4.862211443787064,A
-12.193775233467289,-2.795608359651391,-2.2103547329277666,A
-11.930190272958034,0.42344213606719155,-1.7703744951479332,A
-11.003670769283678,0.06655630513828066,1.3221135057225655,A
-9.531742441903905,-4.478303130076553,2.0813525297543003,A
-9.26300635686328,-5.395614746376532,1.6942764933533898,A
-14.081296783106733,-4.806785485727658,0.397051220419498,A
-16.463839461611073,0.22042919103286146,-2.8605760462408036,A
-11.658396557359954,-0.49316330149122356,-1.4925545252982504,A
-12.678446140897513,-1.7561078456595858,-4.042453581934666,A
-9.150635924257104,-2.483648400513435,-2.8210190490567184,A
-9.92581645558066,-1.9433664079321886,-2.2910379853304486,A
-9.74601413662868,-2.582587881513872,-3.182578025309631,A
-9.585648898822136,0.6862785270980546,-2.089004737967584,A
-9.361431218046421,-0.9264035722305737,0.9511406047103536,A
-9.190380287055111,-1.5391876642967774,2.2272663559777732,A
-14.363860983864496,-3.1120242519094536,0.9753304984378152,A
-12.776006061789067,-1.3800808510695037,0.11807382061676049,A
-11.068449559488851,-1.391601341187311,0.30584682686254233,A
-11.972173099726918,-2.6335579327401137,0.2889415024211372,A
-10.472532457377577,-4.310714079181204,0.9866269987093377,A
-11.707634654212251,-6.443880320700365,1.5261823031451924,A
-15.176800186010324,-6.0631342658370135,-0.23611415122534693,A
-12.585579397566931,-1.438324273014334,-1.4126413955284416,A
-15.336392561439753,-1.530545783201521,-3.020413073169416,A
-13.236884870276569,-0.8449047917711472,-3.4228038018382922,A
-10.095748268869661,-1.3416060567904469,-1.4529952320194335,A
-8.956457713979413,-2.3503489530213475,-1.7041974598736245,A
-9.08914793035326,-0.549757311217169,-0.8294702617041518,A
-9.928413751746138,3.5911053111711997,-1.3092138677004792,A
-12.843720013195977,-1.2099095245626057,-1.8899641773286524,A
-10.303319921582109,-3.171027521186703,0.3603734314768116,A
-11.908668835529802,-2.5844645562770467,-0.7894329093750395,A
-12.11276056397905,-2.7815429440550847,-1.6724907565533016,A
-12.33831237896444,-1.1401973018453122,0.009086465621125132,A
-12.596809450894499,-2.1447283527499734,0.9045806327118512,A
-11.910798896178875,-4.084349181397568,1.6514716924684705,A
-12.079769111630268,-5.656013140213786,1.8431611667047982,A
-14.475125031978346,-5.420820297864952,-0.02501837135140261,A
-15.520928631947784,-0.7560352191927606,-2.4144888244609004,A
-15.308399595096235,0.8457596546546043,-3.466713795385419,A
-13.407133395975858,-0.31449159099491497,-3.2779459013266066,A
-9.552797089193104,-1.2636803321422898,-2.1156003244605306,A
-8.801323505924682,-2.7680044136757966,-1.9670036042805477,A
-9.421399720779807,-1.9917996718464388,-2.543042298827667,A
-8.205973136977992,1.6937142119970698,-1.811361159814611,A
-8.949164242346553,-1.5011554917610515,-0.9436472628210407,A
-9.409414913356448,-4.25397942832306,0.9877409153188166,A
-11.905086962081665,-3.927669870125974,0.16694535636274668,A
-12.362430907412698,-0.31432048327197665,-2.9512743653102564,A
-13.52779594306253,0.4633588015789974,-1.8492055691512825,A
-12.736349722490713,-0.07306677824210667,0.8428890541321689,A
-11.456872835123463,-1.907266473390924,0.18849531890701404,A
-11.100076673173241,-5.90752901073847,0.48508863093725924,A
-13.752437635054948,-6.592366212772129,-1.064517775763558,A
-14.001419276387383,-0.6063755441164705,-1.742858675602118,A
-14.332722257093682,-0.11612454526989424,-1.9526548104772696,A
-13.687386731381599,-1.2364436491157187,-2.9504440343106793,A
-11.454022066244988,-3.9681985704499105,-3.0785498191731913,A
-12.116547148055547,-6.208178660203574,-2.88001784863299,A
-10.7176235058775,-2.7196422395222157,-0.692002484971412,A
-7.193967846150877,2.641649365357544,0.9009333774536455,A
-4.480251878925189,-0.5020496633544869,-0.3541025643402636,A
-3.2355044797741868,-2.8652211628544912,-5.009913985608186,A
-5.345491575087328,-4.73186307177332,-9.459420420348376,A
-12.5882780386219,-8.890316470490307,-3.6802767915386267,A
-12.142285907493871,-6.401862488986349,-6.227603802843314,A
-8.799358689057167,-1.24331045651042,-4.860136663897071,A
-10.619065694586682,-4.739025111350547,0.977297279601561,A
-10.877443978677748,-7.738944561580156,-1.844402044259999,A
-9.243570096739925,-11.812862834930682,-0.7138850303486558,A
-15.663563206577807,-5.343989115088685,-6.866871475567942,A
-13.110115239460693,4.391468070309512,-4.327571867907828,A
-13.363516806387116,4.379535063583964,-2.483186175556156,A
-9.542223117653093,-1.3123294374041898,-1.9614852186449179,A
-10.392506457382911,-4.48158483807839,-3.01070253264479,A
-8.34362451618128,-2.0947001202125373,-2.941347616696636,A
-6.998718361905361,-1.5566373379000873,-1.8082733586084658,A
-6.89534579355138,-0.6313680507092366,-1.6643570607108302,A
-10.646242404633075,-1.76641010363798,-2.367771019134637,A
-10.096477893906833,-4.907235137531182,1.6442195933368224,A
-13.385767450551459,-5.306202541974934,-0.5326123477003346,A
-11.219705537608858,-0.2791729548422214,-1.8777533328811888,A
-11.523497234736087,2.016661822733178,0.024796377995885244,A
-10.659276928221896,-2.9606176507540374,1.3687697088276651,A
-11.19062962341405,-5.041976761159746,1.2839282198882773,A
-11.548217445300041,-2.9157191672291667,1.1665661635773799,A
-14.998918470724364,-1.4040360017011242,-0.9359625964083227,A
-13.775367174602605,-1.1624846184199498,-2.7553017905361403,A
-13.55547554326555,-0.9546670310694126,-3.639126492557723,A
-8.694932132273031,-0.24896162077541245,-2.193382779679991,A
-8.570881074185428,-1.4234964203129346,-2.364023328369845,A
-7.289685369129425,-3.310291734577047,-2.7431705711035734,A
-8.341342583445567,-2.2977338921086745,-3.1092683774283882,A
-7.597052237106123,1.0767427579217865,-2.6761617844678636,A
-7.787632244817428,-3.7008901009525537,-13.46753249930875,A
-0.5071069918023162,-16.04152601278347,-12.983014345512236,A
-2.5541142118261346,-7.855390117584908,-9.262189940431831,A
-6.719651538032245,-5.177528517654307,-12.434743208051469,A
-3.1992986768198035,-2.7258897323624116,-6.882463105199755,A
-1.6756345654209923,-1.5390168451785948,-6.742786746293518,A
-1.7260320283114357,-1.0145338286623247,-4.519370836747222,A
-1.3617089017348114,-0.386087615099197,-5.1616782891912605,A
-3.314250869091814,0.7204567849239036,-6.659843557055568,A
-6.451600447741035,-2.655720201851639,-12.006149173886639,A
-7.121571685455919,-3.154049725168275,-12.88608310627099,A
-3.927252102479637,-4.84097426592063,-11.281607164134893,A
-2.1089296499044843,-6.337485524529015,-8.709195016810977,A
-1.3091131680232218,-4.396730792790317,-8.783631279048445,A
-5.0302302508329415,-3.2675344139760973,-6.976602948488695,A
-7.429268946006044,-3.763766234810081,-6.4768737803795355,A
-8.981536902087718,-3.5184482948393954,-4.387057395857775,A
-6.548391118124899,-3.2864669916730342,-6.39084604397074,A
-4.813615845724345,-5.901794135706084,-4.077960172992543,A
-8.349921932822118,-7.320609319417784,-5.135606769325215,A
-9.042664546553326,-6.758047371602234,-5.695869611493217,A
-5.105084910742148,-5.065549540948953,-4.638286928931959,A
-5.6374320624139544,-6.932486247588955,-3.0564667871407867,A
-6.873731405437857,-7.896344727737809,-5.018988374915086,A
-9.785155840089955,-5.781197975212691,-4.876885660061751,A
-9.616350610547332,-7.020221605645895,-5.78314591933046,A
-8.991219407047181,-3.757937638650877,-5.8507050386969395,A
-9.312072081090992,-4.339184938060575,-7.562233574935487,A
-9.80138408445949,-5.262310087007493,-2.408688710705556,A
-5.556013158558792,-5.689892110443695,-3.7610136289773317,A
-5.224615418301078,-4.433759651742447,-2.676802510222953,A
-4.941895781654329,-0.38095610294669,-10.065786759168622,A
-10.41476585622116,1.0243595406598134,-0.8278801071351206,A
-5.834539815274184,-6.21248452028075,-9.267835411730951,A
-15.23405070354078,3.862164912502277,5.519369942982302,A
-9.780054144855578,2.03069879026326,9.84854776661979,A
-2.660639542998147,-6.904107015952305,-2.9743872646073584,A
-7.326096528107264,2.6338846854347526,1.5593250775450582,A
-4.10137685041077,-1.8529124462839985,-4.411109305108717,A
-7.282905168306294,3.107498217459563,-4.478587508451898,A
-13.082925575668257,-7.765283194046105,-10.98995729265463,A
-14.732405838985631,-15.932622282537759,-7.338613566925765,A
-6.785921185133031,-3.078516371132231,-5.682096752090234,A
-11.241707937015848,-2.856602688078344,-2.497262985665477,A
-7.5910802474940935,-3.901429290869619,-3.7837632388217135,A
-6.609597088564389,-3.3283841580079305,-0.03057281514028057,A
-7.470903908604194,-2.9912865528978827,-2.335146174845944,A
-11.557300379041157,-2.7633094669579163,-3.747214426970142,A
-10.856613711596445,-0.2419429569132665,-4.598573670030799,A
-11.448576510238166,-0.4799566025701554,-2.534664531776121,A
-8.146152614507097,-4.852371666570973,-1.624184272669564,A
-9.066299481074346,-2.426120572258611,-0.36861206411795955,A
-8.303821004547915,-1.4086218457413728,-3.1681034166856636,A
-7.793607522137681,-0.6373044462921483,-0.8159715609672266,A
-8.62856975849942,-1.9053604484923363,0.2853596481316998,A
-11.346378854855377,-3.077490341473286,0.8767351619627389,A
-13.374367264662583,-4.161624305324643,0.022672689487393146,A
-14.239775242881207,-3.0429582958258954,0.6468460013263714,A
-13.07344189927553,-0.3324548146700655,-2.2177039738706186,A
-12.252441484228912,-0.8312850856260988,-1.703666921053252,A
-10.5338291324473,-1.3304203781970194,-2.6656444812235187,A
-7.756428646218728,-1.4689043703767373,-1.2027322600291381,A
-8.011711360831102,-2.6051413888033337,-1.7473837159390289,A
-9.868239081417402,-2.5656367572816055,-2.6343113206656605,A
-10.164120431925651,0.8405815021030433,-2.538667508814332,A
-10.731089000093746,-0.36715107077456494,-1.7385833715775048,A
-10.393134207533121,-4.493125267347407,-0.20209042990117396,A
-9.716862962133224,-3.286821546819135,0.6263123432078095,A
-10.585283559270028,-2.0668618782310983,-2.8905183487586736,A
-10.411655539440048,0.42653259962502316,0.03317594206287084,A
-12.12872973327497,0.07268208775548102,0.513126916198353,A
-12.445001147484538,-2.4175983683726368,1.1911993835580226,A
-14.512542064672136,-5.11831904615391,0.35538410002073,A
-15.420945320826462,-3.2701713100628256,-1.2051271135524435,A
-11.692015713713344,-0.3840665782058852,-1.8563921274841255,A
-13.893779493293664,-1.0383028781140535,-2.779432456108744,A
-10.573213291977757,-1.1156330895308364,-2.832408843833775,A
-8.392176009016083,-1.2948402933817709,-1.136043040281045,A
-8.837728739575939,-3.2360645110551527,-2.1465478858184963,A
-9.71033936872508,-1.603050696480082,-1.9299771350276893,A
-8.517826309496636,1.7518040135593707,-1.5246273644752597,A
-9.951029009895818,-2.7426134147864722,-0.22615143089811923,A
-9.968314081171185,-4.559920189441861,0.8387778345874619,A
-12.645379951455515,-3.311277623347685,-1.0985053375251135,A
-12.041079930880576,-0.8235218067977984,-2.818171439425356,A
-12.312968148991231,0.801224753698402,0.11510011929727776,A
-11.804223854549035,-0.0998573729924981,1.6001141241718033,A
-11.51117566456953,-2.874808489041589,1.3861452550613396,A
-13.44955912598379,-5.054868601655812,0.4033911848815025,A
-14.648522122954649,-2.4630748807169134,-1.1056057152640633,A
-12.494953311172493,-0.2138753130785908,-2.025475792834887,A
-13.761268828495385,-1.633080779506515,-2.5283536779149456,A
-10.774446850912238,-1.3256456808836,-2.4791195095974254,A
-8.458568403036894,-1.6927581895972152,-1.1082472803634298,A
-8.715991871467686,-2.3104720932403686,-1.8118437762752746,A
-9.740455032873221,-1.5640621855208907,-1.835571758968826,A
-9.496569005213432,0.901882084904598,-1.717157875236703,A
-9.789525582396406,-2.536387849871958,0.4697533905570339,A
-9.313660771161798,-3.721182913220482,1.4092317358395223,A
-11.46175009383173,-1.2346849342910864,-0.4695401266464506,A
-12.297961805111518,-0.9396794577353708,-1.8927257862028741,A
-12.252104923212459,-1.6392325916217332,0.5135157638210992,A
-12.192650245531965,-2.1109064084044684,0.2169053668878403,A
-11.489030346615966,-3.0083085560500584,0.7733059929818631,A
-13.43310709317928,-5.083588612706557,0.26107513439455193,A
-13.930140402477534,-3.529339760802966,-0.547036039990244,A
-11.865221424548137,-0.8311075151960684,-1.2566133552448409,A
-14.411528926995114,-1.3247980156473742,-2.6630155321420785,A
-11.001986610250528,-1.2187961275085804,-2.223782042990602,A
-9.854727703548452,-1.4398940138001468,-1.2012989462244152,A
-8.368542098897622,-2.262809478096186,-1.5001377123408943,A
-9.870353002802434,-2.0449011942771858,-1.7402456322261688,A
-8.713642772426073,-0.22140197188269764,-1.5488123841571213,A
-9.640449581677963,-0.9554598268681483,-0.07426348869607682,A
-8.833056559786677,-3.6687195968819095,0.9885166472737116,A
-10.8989764085586,-2.0773790809471437,0.5928933366658998,A
-12.809558542947618,-1.097702010632582,-0.9160841245242306,A
-12.76806668592901,-1.9281690943605816,-0.8172153079750851,A
-11.668764277931244,-2.0964236392381843,-0.11053674287805705,A
-12.202816767313854,-2.235075244755402,-0.30469232623832676,A
-11.637436038837263,-4.912929263642729,-0.3091425948355254,A
-12.462077999383563,-6.440513983714119,0.5520042559526267,A
-12.432417694544403,-3.021390977079556,-0.4343964673359592,A
-12.113975763190181,-0.27682339008593865,-1.8868488339725427,A
-15.043771732541575,-1.068559060180196,-3.646348038784586,A
-11.344049477392703,-1.0284668371750305,-1.77843524502098,A
-9.578469497532536,-2.228038543028831,-1.5075442548568354,A
-8.249011853903806,-2.959910566720708,-2.0099179749699636,A
-10.167410497205509,-2.2187683629247963,-2.096799410122569,A
-8.632282452559398,1.5642104630675375,-0.9522649495490636,A
-9.048250816023137,-1.3243578943361123,-0.645357037019255,A
-10.195563159961798,-3.7931040402231115,0.6575989797594066,A
-12.015255767875315,-1.694658923721165,-0.42271755378976944,A
-12.267914579924913,-1.957249681451181,-0.9625965839970068,A
-13.452010829480423,-0.7704356287371131,-1.5229037900043003,A
-13.233622595295808,-2.002252660326465,0.5687082744969728,A
-12.317587494595283,-4.7093240252577155,1.2198406120661907,A
-12.08272034357049,-5.085677318672499,0.4626293185061775,A
-13.88618353988097,-3.429715334231267,-1.0316264466373004,A
-12.712270696688082,-1.3457581645025414,-1.591224570899653,A
-14.796460141883559,-1.1991378829015762,-3.015121137858327,A
-12.799788752109825,-0.8348184564826455,-2.5743019271421326,A
-10.790055962448626,-1.10597071231037,-1.7982079861162574,A
-9.729968073601755,-3.078074096154047,-2.2271038584209664,A
-11.044615369604227,-0.8461335846466986,-2.059688988891209,A
-7.423130793405497,1.7953917446223377,-0.19557799473378612,A
-8.684942010158652,-0.8145162024178968,-0.8318309502904642,A
-10.624114826610477,-3.0229921998694205,0.16244818996430047,A
-12.644439171699016,-3.94473949623879,0.3967219380677379,A
-14.019328626015405,-2.362714205949645,-2.4378225152609647,A
-14.133787701615939,0.45584910780923077,-1.7725585838831168,A
-12.914611737701886,0.5244249456232832,0.5584378721994232,A
-12.009574463107185,-3.3905788271762907,0.5574558910301726,A
-11.505125078732878,-7.066330821510276,0.40476045213829875,A
-13.643761586249804,-4.4607734553725695,-1.0466868204897362,A
-12.90061551283501,0.6039811789633631,-2.0118905197338215,A
-17.79945162910875,-2.441580074956673,-1.543726328761836,A
-12.551748926713989,-1.3509567425617155,-1.694430101332627,A
-9.905304505414552,-1.8575757764459158,-1.6240096149529397,A
-9.633333791610081,-3.3311519973076633,-1.9431779883818083,A
-8.293427738805866,-1.498528339630886,-1.7683692164806823,A
-6.717564674535565,0.12553564497393815,-0.24817372131344295,A
-7.625800094186232,0.34931441983919437,0.07111025740156526,A
-9.34086499824781,-2.450863091506487,-0.14359210977587628,A
-11.725457428262313,-1.733174784767784,-1.1848029183643938,A
-16.613578107677416,-3.632399234951319,-0.9518968266203952,A
-15.682867532834857,-4.278740284272412,-2.4564779710792806,A
-14.290706741026897,-0.5703755832368673,-0.7573385917694698,A
-12.715076296661728,-2.885104899353477,0.7658974845739068,A
-9.20160752799245,-7.555043938993219,0.9219704878569139,A
-13.94754804385726,-7.502147998154808,-0.22359816486051548,A
-14.151942878968406,-0.11090144787216684,-1.931782053292155,A
-14.066018676160317,1.2496297457353385,-2.227119301835746,A
-15.199973615462635,-1.9932402697209368,-3.042459466832193,A
-11.885516694105442,-2.2806209880730823,-2.3455344431001506,A
-9.910857497165596,-2.4032513159250777,-1.8438227993358955,A
-9.772374023293443,-2.219775358612982,-2.2056367945221864,A
-9.986374348242872,0.7383111018858034,-1.4302861926256876,A
-9.07835804034361,1.4218258617388702,-1.164530149900809,A
-9.441121566856365,-4.135557299725399,0.5173658327237984,A
-10.556141124533967,-2.79343036748351,0.550397093209261,A
-15.48291248828591,-1.220910595744557,-2.3081568355557915,A
-14.736199864310485,-2.052267147420301,-0.6939695292258937,A
-13.894852872151692,-0.8754210088830213,0.7614534652779253,A
-11.697404039040718,-2.5747816898730598,0.7914267436298121,A
-10.654028359604908,-4.93533620318753,-0.5080080402191294,A
-11.243033855531273,-6.701798815479302,0.02943945649351801,A
-12.863976464553263,-4.401896526389231,-0.8509376413869641,A
-14.855523077626975,-1.431442603464671,-2.5428082359869735,A
-16.49685306136793,-1.9214300599571195,-3.708605390573349,A
-14.331873794144702,-2.061869892972955,-2.667313760201307,A
-12.06240198776917,-3.204164082335069,-2.4871056842743013,A
-9.002194153789596,-4.022524791478036,-3.6664250860759164,A
-6.453649130924616,-3.4220740648678696,-5.365298449168074,A
-4.279707619199003,-4.051942644701207,-3.276894330508112,A
-2.9712064866315533,-7.187603918416514,-1.3189091836819808,A
-7.058568415553796,-8.640077589746847,3.856434020493316,A
-3.856821017409098,-7.633582011324684,0.17765963250951408,A
-0.39469467178305356,-11.0034152481007,-2.698589372290037,A
-3.3949969908988122,-9.392275630140928,-1.4272674191902142,A
-1.1729979376041915,-8.026942826358487,-0.8292083411654111,A
-1.8322101978108962,-9.161155673283238,1.0120443570106241,A
-0.872080870188357,-11.564205866371644,-2.0337182561149976,A
-3.8312365283093435,-13.077776638606997,-4.6227235291888995,A
-2.477968473464574,-7.924103334576406,-4.239601345188526,A
-4.498283548037167,-6.233022331701924,0.6346042142418848,A
-4.1577921820926615,-7.3174601415683584,-0.17746511001099252,A
-3.4927339686162466,-5.165391874938656,-0.9262592132384626,A
-2.3633926524742903,-5.773643216499576,-3.1624521056217834,A
-4.670257258222644,-8.28402887745395,-3.345829094233529,A
-5.628432938283431,-10.310915119508074,-2.851028388175508,A
-6.615872632794189,-10.791795411412366,-7.734152814425661,A
-2.8275354611223023,-6.9954019326176935,-7.89830501475047,A
-4.093561768839427,-10.123406578738386,-3.8836575919861196,A
-4.379852118747726,-11.244871368118948,-0.6578437704196274,A
-3.3948182014014834,-4.86490307597727,-1.9260428757388044,A
-2.4916546404778996,-11.397342469148725,-1.098836976163702,A
0.09737616990111486,-9.834332971903077,-1.3043562370185262,A
0.2133102250351025,-12.455366622393226,-1.8875247563654625,A
-3.187270301648587,-11.241743389598398,-3.091040657557433,A
-3.9753763232840615,-11.694874959495024,-5.115448036924049,A
-5.539261933020089,-6.926645388099581,-4.302913668483429,A
-4.5993508839808595,-2.6702487365505956,-2.6839454050632847,A
-3.4073345639151955,-3.305323342776876,-3.325629317016203,A
-4.513067673414263,-6.279135807477777,-3.337247043155973,A
-8.859912229910192,-8.343861464232754,-1.3743660111137868,A
-10.013608403951675,-5.437271095759186,-1.356457118873944,A
-7.770415867168727,-6.826115949115552,-3.9512861398442816,A
-7.458740842322564,-5.021898684555549,-6.3378167345345116,A
-9.00846065298278,-4.634732693333162,-3.7210660677561673,A
-5.945080575982766,-6.5908477830691625,-4.210338993279992,A
-6.037245255402604,-8.7859985797122,-7.2734156072060205,A
-6.240416186530633,-7.823968659942408,-2.988153336282134,A
-8.436418578842037,-2.891496539934928,2.8162305210929177,A
-6.24240412625397,-1.4465068399344874,2.789737012809593,A
-11.049193964971513,-16.36025159700884,0.43711784239758206,A
-10.15699760206633,-10.850187602250204,2.055221666417197,A
-5.02987718215512,-0.9757917729774329,3.077301581805702,A
-5.100241075401907,-6.684432903846669,1.5150136415974769,A
-4.148520983070378,-3.7136472356674526,1.475055572609275,A
-4.523951575685797,-3.235978375628713,1.2001438023263236,A
-6.20499880709011,-1.0929361743917183,1.2364200510366932,A
-10.521270375271168,-3.429214422202548,-0.6395383007019814,A
-14.477818208535542,-0.3623298470572556,-1.3640775047937943,A
-18.317249192413165,-4.372601195016987,-1.684711641186851,A
-12.591486499015256,-4.758976107640284,0.0041414990042523865,A
-11.347683227457868,-0.9492710630174503,-1.4214437379628124,A
-9.670934801746847,-3.662996307295966,-2.96873254312896,A
-7.977341514936202,-3.9638708783353285,-5.624683350216382,A
-7.041680021868801,-9.695275663662262,-2.820609455288219,A
-7.468233712563614,-8.597770836428342,-0.5534244747481765,A
-13.164163582818944,-9.014756278134625,-1.6085147230187853,A
-10.680457222618267,-7.685125048558689,-0.9169502092011121,A
-11.177590066130906,-5.822082202690088,-0.43712544583942026,A
-12.84987991138222,-4.31709243362582,-3.013973659681585,A
-9.516445773657653,-1.7618424607700265,-1.6556402183409122,A
-9.055108419211445,-2.263158228048993,-1.778183588539591,A
-8.711855524990751,-1.8044719769149726,-2.546663089651805,A
-9.029732582829485,-1.7513979332906902,-2.1691705235436896,A
-9.049902539871503,-1.410388908939172,-1.928089342187641,A
-9.493215884807931,-4.150955785701247,-0.9920736339987997,A
-8.483618885709541,-4.604445659040773,1.6246946656644854,A
-10.879077939136458,-3.19038574929944,-0.20025658760046205,A
-10.537135595922582,-2.768454601234211,-0.06450202134918806,A
-9.53622543996431,-2.658949505259092,0.4299519230422156,A
-9.680245770704722,-3.1722408116578946,0.8002348159527537,A
-9.835144567292181,-3.615846149189768,0.550388975102645,A
-12.750745727091667,-5.084900485207101,1.2613598661048206,A
-16.538761239806114,-4.416255880350874,-1.421119147152886,A
-8.320466431947496,-1.6255474884794112,0.48315483122914266,A
-13.06710773286743,-2.4220767474583655,-1.4786486821473517,A
-9.703517964193917,-1.0518129247353059,-2.2116363976916555,A
-8.861763881496524,-1.4728613317505426,-1.2312840863406185,A
-8.310682423284302,-1.740949243278947,-1.6870353187685934,A
-10.156997610110556,-3.165251783079789,-1.9360273925994589,A
-9.490914770660822,0.3056658867335176,-1.3538660547581673,A
-11.051971474334563,-1.2234126499653868,-1.0886836321547335,A
-10.172803943223101,-3.9409034094920488,-0.016812272808797997,A
-9.999380511558767,-4.52446653699326,1.7362841531724826,A
-9.778345435516584,-2.4371938426936772,-0.8278999227113736,A
-10.451990166806496,-0.43008347866674074,0.9643789261688849,A
-11.173146505698924,-2.024846662789007,1.0257571983294929,A
-10.881889409102467,-4.1285844510655885,1.3809412104436083,A
-11.526347808008742,-5.454997132058706,2.2866152139857436,A
-14.795741119733686,-5.727225833364852,0.5115242276400063,A
-13.756555761664226,-1.2825974662528112,-0.5917147003965518,A
-13.605533242554888,-1.9840370508108784,-1.6781062704750807,A
-11.433896790662233,-1.6973229789624564,-2.3584642253860495,A
-9.237882283296774,-2.197476957043991,-1.6671349789528571,A
-8.417605594890817,-3.4867954931236396,-1.4195549530365212,A
-9.67602360464283,-2.1188207003217205,-1.7027365315771525,A
-8.641935627682344,0.3081245223899066,-1.0927382792006357,A
-9.335865156140208,-0.8518856568660852,-0.09387682071546598,A
-9.334325439528232,-2.666038035957857,0.6889695168401415,A
-10.905566841921079,-2.8147519780599466,0.9677517195505716,A
-12.353646704815048,-3.60173127693756,-1.132218607211077,A
-11.53460327880186,-1.1909878940903125,-1.314356161247044,A
-11.911092201178274,-0.9654007931772348,0.4257577669560062,A
-10.755075908430541,-1.7752550900954467,0.895123024461161,A
-10.203940352695275,-3.3944709420774735,1.0893499952240249,A
-15.359166650636645,-5.404426991565941,0.12653991148353536,A
-15.101231328479017,-1.8999577305892876,-1.888074058578963,A
-10.761929144636767,-0.7332108934977257,-0.1361887103661334,A
-15.599220058819096,-1.490798922400843,-3.398572350947463,A
-10.351500006435703,-1.3344462047213892,-2.7602830688910904,A
-9.142615849086152,-0.6956408515802787,-1.1986651357716198,A
-8.101101298217726,-2.358854308381891,-2.095177908790898,A
-9.393076657040385,-1.9305786116571892,-1.982523948404452,A
-9.215169410687704,0.9839898280578433,-2.1784186348191628,A
-9.9822247863923,-2.427418776239896,-0.7347456312377822,A
-8.881619042179793,-3.6588148675138332,1.4584459658285642,A
-12.453501839837942,-2.9102785750634443,-0.543789239893231,A
-12.335031731027783,-1.1498401406708296,-1.6931595249929832,A
-13.259377986556277,0.1512872249329689,0.0734682695950643,A
-11.758883933547466,-2.2413729546534262,0.3168324381931064,A
-11.620205512750857,-4.262967732054321,-0.056428524712221616,A
-11.642757511723282,-6.058202486207987,0.06547982345719147,A
-13.46206745940581,-4.718054951275987,-0.38256347100669413,A
-13.250995284518993,-0.8225670418927553,-2.5832121487063757,A
-14.349032087823623,-0.878147282224003,-3.062947584012306,A
-11.476666427097856,-1.0860350061469553,-1.9503965108907668,A
-9.565920156975693,-1.7241787502251567,-1.0248603491326396,A
-8.730037970639493,-2.8173584866404564,-1.4619075200368943,A
-10.945671793284973,-1.1465620602443294,-1.9061787616340116,A
-8.675619369802645,1.6835367214543648,-1.314833570762804,A
-9.337592348717175,-1.1357269475925835,-0.9192025372864099,A
-9.570271538010214,-3.6605969292239338,0.24856193864861936,A
-10.773776311778798,-3.0197095747081835,0.8370620249381217,A
-12.522426498920604,-1.9114058770752185,-1.4621563566418234,A
-13.669577333697543,-1.0241408243275267,-1.2462221050099245,A
-12.161734758814081,-2.301022998982125,-0.012975710780569246,A
-12.619410032152658,-3.6239837437003173,-0.025577380417320147,A
-9.90092061245119,-5.284326952854444,0.1276219637715512,A
-11.321096169207056,-5.088176003047562,1.1578118872875893,A
-15.034942134339461,-1.268277284931935,-3.433450905123913,A
-12.828831879113975,-0.2811689545696951,-2.6762303895057924,A
-12.374088090649819,-0.05806166225166576,-2.05267695732243,A
-10.087562661752239,-2.0178590939462615,-1.9906781018030588,A
-11.522101581880499,-2.7928080645438222,-3.3013967005026403,A
-10.601239684103625,0.08890885111575701,-2.079129212969921,A
-6.827296049945276,-0.015670025267667427,-0.0676950213904902,A
-7.560060154928172,-0.9461885470191576,0.08309506656950356,A
-10.043177199941358,-1.9785034538911919,-0.9521920281944958,A
-12.656665058282794,-5.096240081688138,2.763220919415359,A
-14.017358046999414,-4.580737582842748,-0.525445864862915,A
-11.916680462486232,-0.42388500555366593,-0.05421151352172063,A
-10.579845614816318,-0.02366146875496803,0.18651900383968825,A
-10.303298515361718,-3.7151455464537704,-0.027594525349246918,A
-9.930831333473883,-5.856595137224531,0.47187189459936935,A
-10.937941031617333,-4.894553027501987,1.3074177065753447,A
-16.32099737911933,-2.5626431304161725,-1.952100461479181,A
-13.577481416309142,0.10137026778970586,-2.70048962257573,A
-12.830769044378883,-1.3702557052231976,-1.7598513439725203,A
-10.731776193758368,-1.1192113351848214,-1.973485212818045,A
-9.286900452806846,-2.360237719868967,-1.6737525486152902,A
-8.367070355143614,-1.5656795892170667,-1.4187144815839596,A
-7.437692967248397,-0.9585412427627802,-1.191389151238795,A
-8.98097569979486,0.08250660702259748,-1.4553088186677847,A
-9.783793651736934,-2.604005988233993,-1.4435214494208766,A
-11.66955709982747,-5.510213562671555,3.5751870920605433,A
-13.020871558001193,-6.542738438933623,0.4731464609777052,A
-11.352260055058794,0.7154581612997195,-1.42416735734963,A
-11.723674005155885,1.4096158876368983,1.6670431654299684,A
-9.857582771887909,-4.079524589473989,0.5359157581031998,A
-9.395729313706774,-6.129981970480233,0.9695771760592824,A
-14.08101512287402,-6.914658419236681,0.1824116535381232,A
-14.96473939469465,-2.6275859554358214,-1.7251001664348915,A
-12.606446464242591,0.8372636443037514,-0.988208809694875,A
-14.162097399618355,-1.6484977526286306,-3.025495284570733,A
-8.228371618354894,-1.642262148906265,-2.5274044255295407,A
-8.887682567479276,-2.2431506955699683,-1.762852270560107,A
-7.546557025531776,-2.7696355547524876,-2.2889416286656905,A
-8.82493565624909,-1.6318729565728258,-2.0813817284561695,A
-8.3427289497641,-1.0646184730935444,-1.3235283246182756,A
-9.726499045383333,-2.3603922242961564,-0.68548509710314,A
-9.151421606398749,-2.970118550365973,0.8149989696646239,A
-12.181632749973224,-3.0773683208383287,0.22587271172298443,A
-10.889413791230172,-2.3245404524740994,-0.21358199484257367,A
-11.725368522944613,-1.4522535020082428,0.36542895052716284,A
-10.745293268883316,-1.4508169458692095,1.242667157312359,A
-11.188179524824294,-2.273139773163853,0.9357637328902142,A
-11.934304007832033,-3.6744458327358966,1.247505465729909,A
-15.159748350277455,-3.4994609498020637,0.1550076388032006,A
-13.127168709343229,-1.6890206932548923,-0.9676887861420531,A
-13.002556194235133,-1.3136757122475535,-2.039032286646974,A
-10.361541628453162,-0.9364932807831274,-2.585627450025744,A
-8.446482380098058,-1.1647245613060886,-1.6037031165037545,A
-8.764574719090962,-2.6555555546110363,-2.057667126925604,A
-9.840293488094328,-1.999302315398165,-2.623692135885185,A
-9.5578333437349,0.8441325505086033,-2.1023632120460385,A
-9.432115262240115,-2.434497874936786,-0.9190319647501295,A
-7.86853173285352,-4.143661042704376,2.2196051830855135,A
-10.06054830975309,-2.809737789596392,0.8745067987941585,A
-12.09691379141427,-0.9048282993521031,-0.841077317318092,A
-13.546552881608081,-1.6716526747005587,0.7679177791927987,A
-11.26888576519327,-2.01450061394464,0.7482917286131658,A
-11.680981791045001,-3.239025981558839,0.5240259046303859,A
-11.84774056498257,-4.437788500473891,0.5382030399573758,A
-13.828113082832735,-3.705783868009805,0.44891546733238435,A
-12.753396438214402,-1.3456665005864086,-1.7825850416417006,A
-12.579907020404315,-1.4078419827700712,-1.9798496395909853,A
-10.799435627390544,-1.0761281716098117,-2.059925957066898,A
-8.577333696135232,-1.8181157224567295,-1.2311109753015463,A
-7.8922942186830936,-2.4314061329212513,-1.6023798639964975,A
-9.208452296839102,-1.5553780206273948,-2.022636334528852,A
-9.597695114557133,0.1469335609909691,-2.4525501425425795,A
-10.609871812888546,-2.4568862684351545,-1.453527204961764,A
-8.1228535012834,-4.863127176183185,2.012048397436282,A
-11.2180218142985,-2.7562436795025054,-0.3628772219307222,A
-11.461967909008086,-0.15442034717801645,-1.3115714472751105,A
-12.272539013635779,-0.20306038194120724,0.4902001491408165,A
-11.438998559048182,-3.0225635486166986,0.40322950223268056,A
-11.905414368583793,-3.9514234597010356,0.07524993346805559,A
-11.34220602402904,-4.27504659295593,1.3807946913273526,A
-13.48743548613462,-3.1699214332460293,0.5687581124472857,A
-11.911312070573969,-2.3682535825173403,-0.8494914717536182,A
-13.019752348017734,-1.746009233454788,-1.874339905971236,A
-12.794528984015392,-1.308555058014013,-2.655550126069344,A
-9.41808115263755,-0.5548852375098965,-1.5632110622723365,A
-9.413386905898362,-3.122911661455737,-1.4687156965195276,A
-10.246564273056583,-1.6412861541315829,-1.788854978674364,A
-10.023313621928446,4.087235809139848,-1.367354968918318,A
-11.215428200489034,-2.134133698136845,-1.314606910300708,A
-8.571686431909747,-3.9211361954923785,2.7982964153071324,A
-11.499953025517648,-1.128411150449841,-0.2824921237521856,A
-12.969470527631408,-1.3949384141025318,-1.9121388844889502,A
-13.123080694561331,-2.3081829831190093,0.39586980791783244,A
-12.676298260044172,-2.6842740784045986,0.21018350027531985,A
-11.47759675728285,-3.7465519686648006,0.8707779194212729,A
-12.880046399434798,-6.588623718969493,0.5872573231631337,A
-13.440556600907753,-3.8122571085679997,-0.7424989136283671,A
-11.129518245270654,-0.5373508692533117,-0.7743004496909035,A
-15.19864919907086,-0.8889827495317518,-3.1193616365250345,A
-12.67887693307907,-1.2037660023492647,-3.1614513922612355,A
-10.500765674317607,-0.7652496993312438,-1.7394259280834612,A
-8.68499072149885,-2.329594578058479,-2.119874127601604,A
-10.587295765883603,-3.1161465879326946,-2.1075242584813503,A
-9.041032668336145,1.8156905267877508,-1.830540631974415,A
-8.47182745885373,0.20114570694521933,0.07393546423031261,A
-9.25297396217327,-4.74947294053071,0.32839514628959243,A
-13.023549806081647,-1.5152550694624154,-0.9657559679690206,A
-13.513599786865354,-1.2457170319312127,-2.4819683046350076,A
-13.572257756078722,-1.8984449404471226,-0.2744308580838381,A
-12.191073578514581,-2.0439486285127497,0.046028707270200836,A
-10.905470582765332,-2.107187452115503,1.0191090834433085,A
-10.668697056685989,-3.925473243380529,0.24935644588551314,A
-13.689963553667432,-4.2475837780088455,-0.8847736799263076,A
-13.553315811705941,-3.7912062145430268,-1.6960818132283069,A
-14.583353885435884,-1.0254654719801193,-2.355411518111709,A
-13.338168803916885,-1.46537719435764,-2.922649998948775,A
-11.829311485474875,-0.7427178287144408,-1.7264077447968955,A
-11.489944535848833,-2.5910452018435515,-1.6225527477814037,A
-11.099180465659975,2.512231520271441,-1.224977659084997,A
-9.099214466810274,6.997567041559656,-0.8256171706345513,A
-11.770454168472792,-1.6712662549101471,-1.6895514992846272,A
-10.123375202794834,-3.475553648227765,0.802604961959566,A
-13.454816928450215,-2.427507609453066,-1.240178189671932,A
-14.653386330632982,-2.045365537497445,-2.982796689221317,A
-14.169428825099436,-0.9471323640959594,-1.5250394674960053,A
-12.882314748926907,-1.4587179349198394,0.21956641415328784,A
-11.441555924648762,-7.381860062433306,0.3688479678679109,A
-9.63443468989528,-10.129721691098444,1.2049507468537488,A
-13.61160749656214,-7.007387776779475,0.05614480627724252,A
-17.83089720647896,1.321437878877295,-4.1436416443931705,A
-15.146709255993223,2.4559119080737495,-2.768198854871736,A
-15.6824450499008,-1.2351366544019995,-2.65308996798498,A
-13.349323471153092,-2.2562724938088956,-3.676152396475006,A
-10.579254490498224,-2.0594651971681572,-2.5900471487832024,A
-9.136319013683199,-2.5377242379015756,-1.9521754955464754,A
-7.85547123752603,0.5627513405678991,-0.2530319201152495,A
-7.760192958812922,1.6657115579464503,-0.3648655568443672,A
-10.36696608010245,-1.7227138949633596,-0.1859494920198636,A
-10.890585633621978,-2.6726166782086187,0.19275448601553566,A
-14.153633156379835,-2.6165191174161446,-0.22566269746193554,A
-13.965176721042706,-2.6391749870437775,-1.3764866037358279,A
-14.350274730989161,0.33155220511275907,-0.4004121468349689,A
-13.40083036117961,0.23943170907265424,0.9113158843788008,A
-12.453869318309696,-4.14785671428591,1.766315688732105,A
-11.950143798985744,-5.291281149631688,2.4810716335470393,A
-14.014017496711345,-2.613101962051469,1.551928844363841,A
-14.610734910827652,0.07256224625969673,-1.2598279130030863,A
-13.937166417056,-0.5396868713091987,-2.779295405425177,A
-14.311089993107137,-1.4252446729230077,-3.844861920712684,A
-11.299548128743611,-1.6526529521134132,-2.342935240740589,A
-9.890705205859424,-1.8868508774685813,-1.8687422595795216,A
-9.983823373947565,-3.3235498049921883,-1.9266937857031758,A
-10.199639124286215,3.5028851112479944,-1.6283137096787068,A
-9.198970902417807,0.24684138876955003,-0.9410017207974946,A
-9.374100446516511,-3.759588836238362,1.4495452624890763,A
-12.05992774955694,-1.1406962801190164,1.4750780543763717,A
-12.843720941937752,-2.1347565845765843,-0.3361676914816022,A
-13.434582947983252,-2.114118541866037,-0.1447814286616587,A
-14.71045889235963,-3.988030986998966,0.9982240405604985,A
-12.42553448501009,-3.2343339696819475,0.9539782896698134,A
-11.752097269013449,-4.612686914727246,2.259543299398627,A
-11.985904019809961,-3.4501152664968817,0.6334428942516587,A
-12.165738213405174,-1.5084056471621021,-0.38724095420700505,A
-13.674095008284782,-0.5901295981331917,-2.979865934522259,A
-10.98402375563368,-0.9035441793534731,-2.7917222918830995,A
-8.098875616870071,-1.0723383116590823,-1.4878102645278999,A
-8.455498785136127,-3.5716894774125,-2.1054062137894487,A
-9.961304082914802,-3.000433619860104,-2.529943858211092,A
-9.190210163551729,0.9378156847488536,-1.5878002350811222,A
-9.775519895004965,-0.03815676409502338,-0.5320811269746382,A
-10.262021104026909,-3.4208145435434045,-0.5732070898848554,A
-11.624736348207485,-2.836797757128973,0.1388981604011697,A
-11.659363006300914,-3.3998602965612705,-0.6988602291266846,A
-11.19621740998727,-1.0472046955636136,0.28073957453082093,A
-11.915755710676233,-0.7207824612164166,1.7161304573192222,A
-10.369558559517463,-2.5939273670995684,2.1871955503818494,A
-12.78765546203659,-5.411912236280706,2.0255973459314105,A
-16.216028388511955,-3.3187931643895814,-0.9411827097272099,A
-14.324546126692601,-0.3452700743360913,-2.3565927354348695,A
-14.296577086084346,-1.2442984452601824,-3.0100854859319246,A
-11.629546696155254,-1.6588591387947458,-3.1783747923423404,A
-8.933305147521473,-2.043304040431073,-1.2969866864032316,A
-10.281438889597876,-3.026828140328636,-1.8975260866135817,A
-9.458814335281405,-0.15788296832857418,-1.7167586073173946,A
-9.054808953408003,2.7085582262470584,-1.3805952159945722,A
-9.141328751796717,-3.3951962200217105,0.37150278747636795,A
-9.826200068838455,-3.7129199029216706,1.7607769038653955,A
-14.45344388152376,-2.3350920446164674,-0.9572784297491455,A
-12.461231152560105,-1.7423971900275492,-1.066789566103839,A
-12.990552296835192,0.18451760099575742,-0.09974411386407381,A
-11.84198096619796,-2.134175728171497,0.5345059019850673,A
-10.9072057597369,-3.9442518551509087,0.5053450426713353,A
-13.568964035798622,-7.023075217217923,0.8001223452982722,A
-14.260922814459109,-2.8026866850503183,-0.8012019664582929,A
-11.430806331512523,-0.15050808873324156,-0.6924399742053073,A
-16.59528831953266,-1.35406931409638,-3.3905983712824144,A
-11.95912226869079,-1.6537525432093285,-2.5930758976354435,A
-10.315079653107214,-1.3835269654774427,-1.1332889358613152,A
-8.826281443975818,-2.1673875834361316,-2.083454184655199,A
-9.102528947490342,-1.6931226664970551,-1.4816647638289877,A
-8.79185669700993,-0.5184281381251279,-1.2149359666121424,A
-8.67482274685312,-0.8249987983185675,0.2746592421997381,A
-8.144533518223048,-3.005272034889138,1.8619138889171933,A
-10.844167388928001,-1.6990983708925589,2.240398598262213,A
-12.980484300927674,-0.30068628116633617,-0.9461198353824243,A
-13.923481032145814,-2.5706167389827375,0.04248300443630524,A
-12.943675662212774,-3.6997450900362607,-0.20024666435386457,A
-10.993461911431526,-3.736103456791026,0.5993392598776385,A
-11.129663663876533,-5.5451513763528615,0.6967512022215072,A
-10.058777959699261,-5.390258307967498,1.2400844524685366,A
-12.773065039834632,-4.798813885188846,0.8446624762893381,A
-12.853122463052491,-2.3636539352499186,-1.1765832175549837,A
-13.782413852581072,-2.179298662035167,-1.9323845656041945,A
-12.4353588949324,-0.9417722269383273,-2.2343118191497333,A
-9.976729487686969,-1.0022946682345029,-1.7608080930902914,A
-9.453923221182562,-2.22642492934702,-1.6058701991346818,A
-10.088675541903202,-1.5565131289222665,-2.0360690692536765,A
-12.54643557517309,1.9626900805830128,-3.073061102821724,A
-8.921232921966324,-3.5414971521831546,0.6541402664421715,A
-7.788689988743077,-2.666529825051915,1.8257427415219332,A
-10.156212444287233,-0.7280645153294035,-1.7269922900571073,A
-11.36865853197792,-1.257626974447786,-0.914206582576795,A
-11.062302462462592,-2.5643246415648253,0.4850251229154803,A
-12.247825777188336,-4.145538444959383,0.7013066096604225,A
-11.193633162594566,-4.406230609568769,1.2282049136133928,A
-16.887266846922625,-5.786700566797972,0.3486264615586096,A
-13.13206888106247,-1.675214707682373,-0.5027505106245741,A
-8.96132845635474,-0.31294183116539065,0.42239303670850775,A
-14.701223735510236,-1.771858078543223,-3.380799290136657,A
-9.845147060494897,-1.1078177803774854,-2.667606328552068,A
-8.800937055784779,-1.4810123475021608,-1.417825579250589,A
-7.962610050663658,-2.832583939737778,-1.9602522851736437,A
-9.6373804513063,-2.7958244650495514,-2.2000515350034515,A
-10.088528112156773,0.7100877790427267,-1.8028186138421765,A
-10.405472837267782,-1.5640438478338685,-0.5479889423338018,A
-9.816220820062648,-2.3964791701333867,1.392630471832489,A
-10.818887324525631,-2.2648470017372855,-0.5489467182473154,A
-10.839510418339618,-1.2629111391915424,-0.6304694061258597,A
-11.148843091061032,-1.8271557770891846,0.5339182210829997,A
-11.386927677170517,-2.538777768871759,0.841485626889256,A
-11.636371918076575,-3.125826684027226,1.1312421978563392,A
-13.66528984139705,-3.7800558048140247,1.1633729910615358,A
-15.961754612009734,-2.125868942320764,-0.8329942678685989,A
-12.74434209378808,0.5534923205093508,-2.6003859165825958,A
-14.922197120428265,-0.4955700553403867,-4.340386641310347,A
-9.482451279286758,-1.7337686920144455,-2.4120124680631894,A
-8.610156439573725,-2.7730113083357404,-1.0804211526738552,A
-8.940517826835675,-3.3271451926312925,-2.2127411465118247,A
-9.335705894686756,-1.5471649576725215,-2.88725490922187,A
-7.157136547854723,1.1853895398778975,-1.3173995888517624,A
-10.018069930712116,-1.206344466043788,-0.5725965131090434,A
-8.930375566664903,-4.68393718143232,1.7676221988237673,A
-14.116641630021173,-3.1264586314747365,0.2611472654751811,A
-13.351940216713498,-0.26847117141797633,-3.709705513625738,A
-12.520830962004869,0.41191665645760595,0.328497527741326,A
-10.717896769789075,-0.6915209460617411,-0.18376586303065903,A
-10.804973027286389,-3.8532701863971894,-0.4694413787786086,A
-9.488086000366915,-4.806076708247248,-0.32305287797403587,A
-10.931423628905014,-5.850295210535567,0.9995401240648739,A
-15.29750175604322,-4.230563110977937,-1.9056148450663413,A
-12.792993773780646,-0.5982384438310623,-2.0989979065252347,A
-13.20885386153121,0.7407283972187917,-2.6170930808333117,A
-11.506260113982849,-0.7042238246708072,-1.9896541716598621,A
-9.44365438410772,-2.6097176036164376,-1.5366249114477837,A
-9.703016793978222,-2.537569166705668,-1.374433090299981,A
-7.779685407933939,-1.684291134935627,-0.47608788200297353,A
-8.50433301172965,-0.4143773541860448,-0.12157494991314637,A
-6.86887931816207,-1.6393149393865822,1.2204619582060163,A
-9.709667129156648,-1.5020729322765922,1.1165079123734707,A
-12.960919257908577,-3.28846320295329,-0.3213699870851777,A
-9.890092583301556,-1.1415630024728074,-0.2311131727385243,A
-12.05153153485275,-1.5710905220333653,-0.27316566162639183,A
-10.912848441760806,-3.0363235996178157,-0.26980129622655785,A
-10.648501878378296,-4.0358432865052425,0.6080689960059708,A
-12.801888791237817,-6.508279825879548,1.2641902840459789,A
-15.501868325903136,-3.6751190097540487,-0.1435810471410638,A
-10.606516558438885,0.11475391422955968,0.23380923539309542,A
-13.423635069472247,-1.5840512546611378,-1.2174529043962923,A
-11.436929274297961,-1.489697241597825,-2.35123617998077,A
-8.300989447667945,-1.3443924508230094,-1.265738288272973,A
-8.511991756046005,-1.7089841961297314,-1.8446014779358846,A
-9.27363621359662,-2.708686035574376,-2.000674819978297,A
-10.25041059928478,0.9190639079063723,-2.478602973880146,A
-10.600361272600802,-0.10155996387957544,-2.0784469430240695,A
-7.801872145852535,-4.428601866583526,1.1221178008933952,A
-9.740452751354061,-2.5900947007377906,0.0971561655761631,A
-12.388116974132402,-2.08969699161653,-2.3691599449062055,A
-11.066506895098993,-1.1641888006688792,0.6089185558412636,A
-12.094031287368585,-2.937386595761444,2.699947387797923,A
-10.325996064664333,-2.5172440040722996,3.1615789620458052,A
-15.34498620620414,-4.67563569566514,3.257195339479345,A
-15.760958410245172,-2.233964203667086,-0.34118697290695404,A
-9.54626723404525,0.07436438686276796,0.2255264881282002,A
-15.040947282966183,-2.252658115775727,-2.552688208394619,A
-10.85974344387861,-2.2720318120213348,-3.4446442768265086,A
-8.816314081121488,-0.8735033829177612,-1.469044060722015,A
-8.461988034163168,-3.661458526025401,-1.9990473686472743,A
-10.437225069536959,-1.4967999989338319,-1.3045678973883599,A
-9.579475989013003,2.917544849944737,-1.5090003009189816,A
-10.000341914635296,-2.703674715409276,-1.17493375317372,A
-10.41630993965451,-2.947406092430469,0.5653621370001214,A
-12.192632367302677,-3.871349819776007,0.13628202137431444,A
-12.093911345367754,-3.9288729486943166,0.6705892519585962,A
-13.083657965800759,-1.5241459392018573,0.9844912860547207,A
-12.681546008406103,-0.7182150305629263,1.1394447970237207,A
-13.577484906776949,-2.703003884625681,1.488696431782141,A
-12.699367904413755,-3.7773167166628925,1.72073583874464,A
-12.046911496709987,-1.6433711379851843,0.457768540660368,A
-14.001413153392038,-0.6841440644133746,-2.402135270853064,A
-14.554504157725797,-1.1063959449292957,-4.25578901139183,A
-10.248778184835807,-0.4919254055179201,-2.4675800789636155,A
-8.757419353544249,-2.3308828092322016,-1.8918110813867839,A
-8.892240239379195,-3.6358463843353497,-2.7481084426236815,A
-8.99965292692256,-0.8563322764317401,-2.223566304266347,A
-6.428880572549088,0.29969538725743883,-0.3606646064534982,A
-8.744366452306487,-1.1560441788884095,-1.1283650776197829,A
-10.842439517513336,-2.5631437368166528,-0.3175973080458164,A
-14.627173588395129,-7.152490006016469,1.6095688010875888,A
-12.500259330006319,-4.124642704558457,-2.141680336337061,A
-12.593902348209612,2.9672949799155934,-0.9858989902739026,A
-10.995078221209816,1.4100953222158115,0.4234588981004622,A
-10.626780498858748,-2.077320289613808,0.2598017889009017,A
-9.827234096216682,-5.5872261846136935,0.39299038466711994,A
-12.660969700501132,-5.216675784838964,0.6241906225018232,A
-14.116791518029816,-2.7192966777908065,-1.4770907331738736,A
-14.684665250726733,-0.20710132667649592,-2.0845782980579566,A
-12.922620292603739,-0.06037816127162802,-2.5248167789752247,A
-9.146770659871816,-1.1452091860171663,-1.2543939819973802,A
-8.654824189460165,-2.658456082423032,-1.3496788014702081,A
-8.476395770870743,-2.1457957094892373,-1.2225285937042873,A
-8.32593145219179,0.3928889123827639,-1.4495557843959606,A
-8.809265654718077,-0.2802770863505744,-1.3908929078875265,A
-8.274717832807,-3.5819252340887875,-0.05472877068631042,A
-10.36966628930526,-3.870780191673985,1.5447458945915133,A
-12.963189669823992,-4.276659500929905,-0.8395202686364834,A
-12.452022831522985,-0.18737336274726749,-1.1920214961287812,A
-12.447045644714173,-0.55808217713147,1.1319545484925135,A
-11.797052021930998,-5.294558673894464,1.7317165628256004,A
-12.31080843807899,-5.879687199906948,1.7478337778496533,A
-13.861394284702119,-2.0128453929727748,1.266219127230431,A
-12.688486960629069,-0.036258665114877235,-0.3776828678870647,A
-13.385002328740788,-1.3396811803551194,-1.9265066883695048,A
-11.874865182882768,-1.3707125422417628,-2.9036884625169437,A
-9.438116324727243,-1.0567851867986582,-2.068573879338115,A
-8.155901472468505,-2.2660656351934056,-1.9984545496945025,A
-9.422892909086878,-3.2841583094519184,-2.091759484009147,A
-9.260932026380607,-1.476414009162436,-1.728201466059325,A
-9.496685583865133,0.12080717604305871,-1.19680389078427,A
-9.53942147128386,-2.1728237896534335,-0.8760733101927156,A
-10.485914177006968,-2.972221455791006,-0.10634556271565695,A
-10.628019376596413,-3.1842364922464634,-0.3540565307728271,A
-11.106696619432869,-2.134844751847067,-0.5471095474300953,A
-11.5670970049831,-0.04420350576112285,0.33918759183919744,A
-12.00794770471573,-0.6546945781801555,1.1070483429047357,A
-11.225430678459198,-4.112147349930061,1.725292094729548,A
-14.823664239198196,-4.149295321320211,-0.19844911046445757,A
-14.80179524518536,-0.993251743035003,-1.818071997280711,A
-13.524281776814874,-0.37454773576206757,-2.6998106251709024,A
-12.146072359668118,-1.3609739118268946,-3.1195721753041052,A
-9.713503404333423,-1.3755459248705937,-1.7194953331957452,A
-8.816069704991495,-2.7260920924999454,-1.7212861109359237,A
-10.060657118436506,-2.0396767436712855,-2.8104409065800935,A
-7.901819050764951,1.1459592603074533,-1.8668290644912309,A
-9.001056744426945,-0.03316210168704469,-1.456266909901086,A
-11.094348485174423,-3.9768244763599876,-0.7178244631826842,A
-11.425561544788376,-4.74494214355484,2.7445812473990485,A
-12.009878796988003,-1.468662541278804,-0.5787426564534424,A
-12.247554656356103,-0.4935330283329778,0.48967756179656907,A
-13.208776903776055,-1.3102237368116756,1.6718306853891811,A
-11.927586166570851,-3.0791664997067048,1.8644189858580469,A
-12.254784426531984,-5.260057461816056,1.1777886599861314,A
-12.452237694703689,-3.98425324381139,0.7249669879119327,A
-12.17550918344945,-1.5068354379722795,-0.32812354224787893,A
-13.235927246315773,-2.113775893583657,-1.7955005709368297,A
-13.98380682214931,-1.9453635479255407,-3.1012708594352656,A
-9.738468859035066,-1.0555351948205876,-1.5736908435888164,A
-8.620136524750158,-2.047130299197366,-1.262035212428905,A
-9.138765257935217,-2.6337803747485635,-1.5435382276928695,A
-9.175815208539378,-0.5335040182428255,-1.5088832444614027,A
-8.76729336014956,0.4801600204818371,-0.9912814118741412,A
-10.473033563225673,-3.0745593671090137,-0.114243343963336,A
-11.096753608870271,-4.042600238576384,1.5121674209275533,A
-11.912905657307022,-3.8375402741722042,1.4121956542459686,A
-11.58088356541482,-2.16041134014613,-0.0793306528362116,A
-12.418537611745009,-1.7291028056588282,0.182888022910465,A
-11.907006304506925,-3.7635166007949787,0.5471670518797577,A
-13.231046441793259,-5.317386296314548,0.6172604884578637,A
-12.192358505357952,-4.515148026234132,0.7909158395545673,A
-11.554868734114281,-2.3795236528370345,0.0871909193813235,A
-13.41773780338902,-1.9032127682238518,-1.937994516737049,A
-13.934190741091104,-1.405993827519665,-2.8236327133456816,A
-9.918903681089128,-0.7817862034775979,-1.3308793929744083,A
-8.913988139826806,-1.4384582356798068,-2.041699813549717,A
-8.24458002171083,-3.26479044177766,-1.4030736059571927,A
-9.503962054043537,-1.2444641435093906,-2.1426316243698356,A
-10.28094915032014,0.09885782347575517,-2.0854046574727727,A
-7.6239730182380985,-2.7165345977800452,0.33181882858197925,A
-9.421108420637125,-4.482464844852416,1.8563943322437872,A
-13.001843994451463,-2.670578636512305,-0.7134486766853609,A
-11.508250188893427,-1.751401581591278,0.33255587214057153,A
-11.284747790587923,-2.9301582497586853,0.6241387808925021,A
-11.208221936600388,-2.105162826569331,-0.058020799394924175,A
-11.866627261154504,-2.9847733852007554,-0.04898739417778954,A
-13.532218534474302,-4.560728736514545,0.1345078203739532,A
-12.114695297163072,-3.038691326074934,-0.31236525733339576,A
-10.300786093777257,-1.1510460748106044,-0.3607550255388594,A
-13.380551480474287,-2.090001925389726,-2.934580324550596,A
-9.8048084653262,-1.2659747266537364,-2.3379505153128077,A
-9.57029040522338,-1.7022541508390379,-1.7839555808039216,A
-8.120144206373057,-2.479464428302247,-2.169323304067314,A
-9.82589314344952,-2.3210490465070697,-2.6209295765798926,A
-9.454651840188864,-0.744834471369745,-1.5737285638445846,A
-9.88312432842831,-1.887752495979746,-0.2433989652169721,A
-8.897383971912697,-3.340236750468878,1.8321270652530075,A
-11.109683644589488,-2.8076401215006572,0.8914246560149005,A
-9.426425836803626,-1.6590898977669537,0.2798689252754701,A
-10.887793597214149,-1.9339222684002988,0.28803978614266496,A
-10.08543125945355,-3.4555862557272725,0.6861169353193841,A
-11.891322163253955,-3.6179100794533623,0.6003583130388739,A
-10.811960957647562,-3.1901827788184436,0.44590374395232923,A
-13.84573788041629,-3.6728004765595186,0.1995553165887986,A
-11.415690978811227,-3.0185257409477013,-0.1942540914105704,A
-12.318328567320288,-2.2886559692411383,-2.2987101449226217,A
-11.264607932631039,-1.9311818870749542,-3.123765119382641,A
-10.411124353024807,-0.46780652950342727,-2.857968666909973,A
-8.61520560081551,-2.6617418154713963,-2.7651685462190683,A
-8.177512219794592,-2.771083195051067,-3.507165039810656,A
-8.917332956009217,-2.296940083939844,-2.780129108454372,A
-9.690295068698282,-1.8904682489416946,-2.1670454562733497,A
-10.289372766289965,-4.151885472042174,-0.2639002768129131,A
-8.762859682221983,-5.887714117212157,2.24054705029019,A
-10.03435717437887,-0.6996533580347207,-0.4241379665880812,A
-10.159977841221854,0.13059430334744251,0.04935355763650723,A
-8.837385366519788,-1.7534697366276002,-0.23077544470268446,A
-9.65320381413925,-3.598631386997883,0.537185244450174,A
-9.506936356112694,-3.3957870563996533,0.9305447145859485,A
-12.274273453266416,-4.039172552977616,0.5357893427496608,A
-11.88614909153753,-2.6889589479072034,0.7496376307625688,A
-15.355659435161545,-3.480848335548619,1.4066599362053729,A
-13.620152469093986,-3.114211010619381,-1.3456871874467,A
-11.815866073213817,-2.446285153571418,-2.272842808121745,A
-10.58538499138918,-0.5194993122239242,-3.756902929873294,A
-9.232227224949144,-0.6075256522576179,-2.2789255818789136,A
-9.438146869877743,-2.913955718742174,-3.098276685102717,A
-9.55550112677845,-2.502852208126532,-3.4830817459855754,A
-9.564323810616674,-2.105222706794199,-1.600639578281648,A
-8.650951398051156,-1.9764040113999213,-0.2638286505200152,A
-9.07890478775202,-1.6132776467048113,0.5460633974632382,A
-10.29473839026897,-1.5286905916892026,1.6493048751408057,A
-11.862942717410213,-1.1290210551641686,0.046327629275517944,A
-12.18217881278447,-1.7949121609083394,-0.5418563064761277,A
-11.643589156218379,-0.3211532482859575,0.4463937867602548,A
-10.284272400705852,-0.30355950352275984,1.048938745656081,A
-10.632349412317252,-1.9136109913953028,0.7687266727829756,A
-12.819718571271215,-4.044758982829636,0.834896845759266,A
-13.546218883490639,-3.859510152178236,0.6540030620525729,A
-12.657923243429478,-1.6690414721254272,-0.8915161320970411,A
-13.904169837896022,-2.0788326643564154,-2.7226302570236576,A
-12.617698383520477,0.19985468652140922,-3.3794660327184287,A
-10.321124931776026,0.15020813374580125,-2.4088788443261318,A
-9.578509126652996,-2.3454472073143213,-3.0963984081943976,A
-9.418453880071771,-4.499695092079542,-1.9887643640937778,A
-8.069805115604545,-1.2419349228932055,-0.6131857764083644,A
-7.471816490707932,-0.5437318934336827,-0.09182173991054442,A
-8.276032135842684,0.20136723394368986,1.1238768936252446,A
-13.277589545824206,-0.15671591031011078,-0.06251899013738252,A
-15.867670602618832,-2.9978472322327074,-0.9915791997659918,A
-13.849193168232624,-0.9650301137791739,-0.7384669374133287,A
-13.079669268244329,-0.5006649988051408,-0.589722838310739,A
-10.354553141092143,-2.0806793495616938,-0.8874399930302772,A
-10.245497249599612,-5.615492362207632,-0.5902575883484076,A
-14.619111974778646,-8.2852208215378,-1.8820682572119882,A
-9.135992014800632,-3.4433507114549102,-0.5034125461027162,A
-13.512905748401863,-0.9245298860916429,-0.6973370202948813,A
-16.93456765649852,-2.405394927608144,-3.1809898671795334,A
-12.352129287634162,-1.7499081165070958,-1.271910430798508,A
-11.204239107699497,-1.7661058378378223,-1.6513008882721365,A
-8.967449679029736,-1.3475671276094208,-1.3225545770021592,A
-10.277249360338507,0.08908394316755411,-1.9177261275808777,A
-9.384596014912095,0.4483917721178496,-2.1725985037365825,A
-9.798411456538306,-3.6590965805877436,-0.012575040125136173,A
-8.681069990373983,-3.2262656995140713,1.4232749177294337,A
-11.4309114704135,-0.1261352578733397,-2.273846668449576,A
-12.206458540494939,-1.0612395064611997,-0.8716334075602148,A
-12.797467384916336,-2.921283142322906,-0.28052562051372115,A
-11.799359786482919,-2.9044703134114322,0.45803232661216753,A
-12.293328999808855,-2.8769321808945776,-0.43479891351636846,A
-11.4944675016687,-4.733495180905727,0.6551501531429017,A
-13.145489658258626,-3.824357469894664,-0.07204560002028804,A
-11.94625508560298,-1.2842998356307656,-1.3538563643409365,A
-13.930690408998629,-1.462884750684796,-2.4190447980464795,A
-12.038312717600778,-0.9407335985551846,-2.0659741024274294,A
-10.048326906502478,-1.8935595446596276,-1.3675283682281818,A
-8.150805513507905,-2.011344302253278,-1.0998458019239135,A
-9.982193689025664,-1.8457470236600166,-1.7116002732747704,A
-8.302803829406999,0.056977806915605486,-1.004353986152058,A
-10.305717126978982,-0.6298934363484836,-1.4134851623484188,A
-9.260628256670506,-3.894720774271618,2.089238877441923,A
-11.361074414597196,-2.721100410644552,1.0618922723837354,A
-11.849896608033447,-0.6067779763618433,-0.8570430835769652,A
-12.65735885886898,-1.1893927904414359,0.4232643169947341,A
-10.902760777207192,-1.615602010055632,0.6143359801081784,A
-11.80238435731782,-3.070268888281677,0.06056672723845456,A
-11.442840412290252,-5.4493788988199094,0.24082778253777906,A
-13.528128022144054,-5.808953938539663,0.26824902852772026,A
-12.490622091425896,-2.061415302765192,-0.7234833736809311,A
-13.975544171384852,-1.6724098293783576,-2.007489240499254,A
-13.606226736111667,-1.0506161865941193,-2.630833345277697,A
-10.986145971510863,-1.2522508107031245,-0.9448342295394608,A
-8.67685136117953,-2.0828142585304517,-0.8908799655879039,A
-9.495900738888912,-2.033727551008027,-0.8444513038200683,A
-8.087392521461044,-0.38240749157193676,-0.5184721746611662,A
-9.32438005798284,1.3160105964785225,-1.6099828170005472,A
-10.370529638226849,-2.9973369960760783,0.2929472467443832,A
-10.72275840326604,-3.9749968490126903,1.84705041642882,A
-13.051047737408393,-0.7256758129095903,-2.8906203495516456,A
-14.002443705421811,-1.4549587793241783,-2.654865859904941,A
-13.241862794178491,-3.1267534668185326,0.2411422186655726,A
-10.186650568256502,-3.7361388302602583,1.7838599275713336,A
-10.098865761801873,-2.9357154063684274,0.30749407603856566,A
-10.782155145097462,-4.278026035104458,0.2875009192274283,A
-16.947371894966313,-5.229896161142663,-1.0575428178785364,A
-15.880188200519695,-2.2177330683421683,-2.4298488261656566,A
-15.347077065034002,-0.8847687490751015,-2.1769501486608895,A
-13.425138592703366,-0.8480600118191787,-2.022769092395682,A
-10.970396379289403,-1.7271729378671519,-1.9579793144157218,A
-8.621191791236257,-2.070844139681566,-1.72627669586825,A
-8.627659353360249,-0.5747156479102057,-1.53103652964712,A
-7.585977488652183,0.19256381569137418,-2.155957524086838,A
-7.827985794695898,-1.5178791314725941,-0.5565397821736165,A
-12.17852663011401,-4.564738344845029,2.229939325992548,A
-15.747704438441513,-4.374895885714174,2.3115714960787117,A
-15.571375719332128,-1.63572038460228,1.1808892916877525,A
-13.831734409469446,0.7296735574504445,0.20377194389236522,A
-12.65997597505786,-2.4108600481651994,0.39230124409257733,A
-10.542898714314646,-5.186382943593617,0.21566154325432182,A
-12.241931653724123,-7.650987440935959,0.6295770298553586,A
-12.263040671339144,-2.063279887941108,0.5249022526665535,A
-14.50438698422126,-1.7412257212372022,-3.339984220814389,A
-14.764840410722465,-2.0895513322418675,-3.7060292821222127,A
-13.585596856534272,-3.0624458990354237,-1.2291577262622093,A
-11.991893134686276,-3.0446703426096073,-2.3813885556184773,A
-9.145301959724934,-1.5585613940285397,-1.6896537913396714,A
-8.007381291786395,-0.16387810521931237,-0.7847319996917961,A
-6.671194079270411,0.9336601112448522,-1.342537873902101,A
-7.8293693957025345,-2.579790706774765,1.7828357745363659,A
-14.397370068008616,-4.232197718975111,2.4612686909192893,A
-14.137750948193737,-3.5551598514061356,-0.15422402605758356,A
-11.583031291547043,-1.1540580214452971,-1.9039013885427614,A
-11.59246955528572,-0.5450369168599615,-0.15207444775259435,A
-10.819972501024392,-3.0368893887677353,0.8046725241025686,A
-10.003834856937532,-3.946136737997912,0.030364429923247976,A
-12.691489425907662,-6.407004278988349,1.020512928011399,A
-16.097246381896372,-4.279134150782993,0.1856559408065159,A
-12.806740015013977,-1.8382948991563353,-0.23840790018567376,A
-16.098382207594426,-2.015884844784719,-1.928962166628518,A
-12.75179873214184,-0.7172169916918107,-2.1467292387872154,A
-8.970057275612984,-0.797817128053036,-0.8938706108056536,A
-8.87773938445423,-2.072822227041263,-1.1258528150370315,A
-10.28277335816559,-2.0505695747646113,-1.6741836261077003,A
-9.11353777686613,1.1485423604903833,-1.79362472709971,A
-8.596242201486675,-2.5370173281600232,0.07671607171754381,A
-8.943109011786877,-3.95706755903567,1.7085173313586075,A
-11.605724121160016,-1.8835845285993709,0.1619859975169904,A
-13.707824186654701,-2.2969197590962303,-0.5009121500936627,A
-15.212724265097064,-0.8028559459010275,-0.7096103919832071,A
-13.272120486221263,-3.531430174734377,0.7485402595524243,A
-10.7963629810631,-7.436673255016122,1.997209729643743,A
-12.160745751978471,-7.248167447889378,1.1903891754683356,A
-14.703870555716348,-2.768581189946518,0.10232954884788512,A
-14.675784727990893,-0.958170149455143,-1.8831314147440898,A
-14.169249279913895,-1.624932932407708,-1.9957543607573156,A
-13.085808039068196,-1.7822675193198776,-2.405366929117215,A
-8.996507368510109,-1.7489509333606925,-1.207394964041589,A
-10.76090153673984,-3.0312086599847348,-2.2977618127762875,A
-10.105383792421986,3.9514751924762974,-2.59554739352982,A
-9.439514841830594,3.178010535692849,-4.1873182414117975,A
-8.893455678224772,-6.777724634795682,-0.579613918791712,A
-10.011824180296319,-2.1842990342002664,-0.15303140462545498,A
-14.44223447094262,-3.9414217019384328,-3.3324127045709613,A
-13.612068722562723,-3.111992886802216,-1.1562076955406102,A
-12.969939523275645,0.4492044875486383,1.8148946018087668,A
-12.771261196141047,-2.2517571559197394,1.8745640011071107,A
-11.192701086295928,-5.387249280323239,1.7839186989940203,A
-15.69946697949255,-5.569624070937612,-0.20792962088946473,A
-14.74275484825186,-0.8296230290354527,-1.9191941930862308,A
-15.64805626607513,0.0132925772529513,-3.3841320680976055,A
-13.920682309924898,-0.7035827089015401,-3.283280575445962,A
-11.828394591816663,-1.0859216733316681,-3.0296415212427363,A
-9.137017991261173,-2.2043601401747237,-3.28963829790487,A
-8.377995767716397,-3.686272425780494,-1.97623006523529,A
-7.941243057481402,1.5326520202471334,-1.7689609640800972,A
-7.7097450559172165,0.6138831214723275,-1.875984920882085,A
-8.083513208290276,-2.9149527157611765,-0.5993523505245454,A
-13.793863917246517,-1.765484259151101,0.4383959106049314,A
-17.010881317690526,-5.790388598469224,-1.7487048818300879,A
-16.011121486060258,-3.3447747389867986,-1.2425582909847754,A
-13.612754463522197,-0.01957245818059921,2.394326075915698,A
-12.286963987565079,-3.2140372817891456,1.6986005417351988,A
-11.110408762647303,-5.671332455923478,1.7949943930901155,A
-14.69779851687576,-4.749645471903135,0.3022915735725901,A
-13.358825595461305,-0.8576084763927496,-1.9368765492888933,A
-14.708879430656793,-0.8044851285570849,-2.9216826050867897,A
-14.628576762953069,-0.25389251945395513,-3.311393254414119,A
-11.015693346464495,-0.8652836807429102,-3.548026362859763,A
-9.04665104570659,-3.889668372337695,-2.5863479053757543,A
-10.473631061950494,-3.0967221418519557,-1.9095817408370435,A
-8.635420855837879,3.038154261152148,-1.3287346136655016,A
-10.207630928271579,0.5728467671060038,-1.8799634005227748,A
-10.234787910300037,-3.7201054701237095,1.8778573316180247,A
-15.139527203933524,-3.627795106106953,-0.2698868425634976,A
-12.646741575770394,-5.415677922609435,-0.8140427993270054,A
-12.645185560840158,0.9153415357963218,-1.5269190335593512,A
-13.454354140088807,0.5702745211313969,1.131177813499937,A
-11.80249855481005,-2.7456773360857256,1.3612587404767298,A
-11.256624979467128,-5.469511740818649,1.4671767319721978,A
-14.853557384571753,-3.1693176910187777,-0.6725437471097329,A
-14.094127039733678,-0.2649120627622625,-2.027015097183187,A
-15.559754572747627,-1.6153361427736885,-2.531374316593486,A
-12.497708954112897,-1.2018865468407887,-2.825884982441568,A
-9.483827090896977,-1.4970144780140497,-1.554735964347225,A
-10.119856021689449,-2.547462550155068,-1.8512995278389024,A
-10.084942251757697,-1.5084858077875474,-2.3103291953039324,A
-8.262423407919076,2.193329703213231,-1.9211217833237557,A
-8.708647952103318,-2.3192116190058267,-1.1928404339307415,A
-5.5911401486115215,-3.899133947987593,2.049953391779424,A
-13.040954464074462,-4.7959796701239314,2.0334573535940446,A
-13.445299741346524,-3.456593596580286,-1.5163237251294042,A
-14.79010447411538,2.788153025483642,-1.2370433921030222,A
-12.187587364123244,-1.100900924208957,-0.45134010083919784,A
-10.976364717187979,-5.58568925425794,-2.328629835556214,A
-7.75279145742287,-9.043857399134415,1.3629824434829743,A
-13.138995446404603,-4.900530994912391,0.7706415074731696,A
-16.285258984884955,-2.28202651397929,-0.47551801961478407,A
-12.840739279426968,0.07779743306390312,-1.5955164913080766,A
-13.872533241625511,-2.2968947075005848,-2.161631919177556,A
-11.415453928874312,-2.19464830314965,-1.8213974653457157,A
-11.39536596872754,-2.4920364825085177,-1.0476926075364752,A
-10.787096856087265,-0.6718436875175402,-3.2849014365628246,A
-8.83028237768925,0.673602133364508,-1.975031033102197,A
-9.298830625936944,-0.07863717921466051,-3.9297741385049076,A
-7.134972786334601,-4.216376675149224,-0.419778092293026,A
-9.756187917029903,-4.050350801005059,0.9025545230486013,A
-11.090196761093141,-5.447184350583084,-1.7326637582754894,A
-11.811267534176876,-0.3991890912483821,-1.9063640169104608,A
-14.700274889831258,3.1497154906185516,0.6414232072562778,A
-14.074326434254065,-0.29451661043936084,0.35666897925032814,A
-10.983807388949376,-10.897253452498703,0.5884655404311573,A
-15.772165593243153,-7.390787674065929,0.5024160551595699,A
-11.799375469994073,-0.43653224391177203,-1.092121842804946,A
-11.637947689547786,-5.841351436571555,-8.808412571828296,A
-11.609497200173115,-10.695697603598921,-3.209751598470037,A
-9.19503189883565,-3.5253966050425825,-2.8252539666152354,A
-6.4233508326440205,-3.095042265885621,-2.1283614128475983,A
-8.12708109663381,-1.66816938568695,-2.8965353352399834,A
-5.255317641794062,-3.9878562265356745,-0.8033843469654921,A
-6.584157661147397,1.9881949162751829,-6.089555951649893,A
-5.2848987426663125,-1.526415651608131,-6.974495657375828,A
-12.1924211837297,-8.736584406283615,-9.126173720706337,A
-3.8426279766397777,-10.000568749280776,-3.696609718979312,A
4.066004555114705,-13.432177422730302,4.222032269960032,A
-11.2799050988941,-0.11112624917015161,-2.6238798290985117,A
-3.222705716153749,-5.574182004483141,-2.0924758176444236,A
-12.863404353488052,0.11140369483203985,-5.509985400816013,A
-13.28230724177755,-9.005542716637036,0.19803583222831897,A
-10.423446397962302,-1.9328718741511743,-1.6136830221599205,A
-10.302297586813845,-0.014217565119652671,-1.7620305217377767,A
-9.685921789027702,0.32979060869023985,-3.495573437383018,A
-6.361509547895234,-2.4646432226415698,1.2175458078985217,A
-7.460834900646016,-3.0328323432478794,-0.0896307746890633,A
-10.27993644968299,-2.7783999875879086,-0.6677095958507318,A
-15.822517066131029,3.1479908500159417,-7.789277858181504,A
-8.273855347078175,-4.100538281356983,0.013739896136939177,A
-6.887375227571301,-5.832430508860462,2.436396189120304,A
-9.353660478452971,2.2595832007841046,-3.7325276298820405,A
-10.108684304465445,0.324079904895894,-1.167720919742785,A
-9.24436272727055,-1.100841270954732,-0.14489168076459497,A
-10.824364626868997,-3.922577378672214,-0.1331052646058031,A
-11.106313465549418,-2.848933361949042,-0.8736465678549608,A
-13.618184943918676,-5.126703365832948,1.478282293540118,A
-14.303692881472957,-2.744264612563876,0.3765589470938839,A
-12.9110664437715,-0.3209340109476372,-1.927810268651668,A
-13.944573109812923,-1.8540624005172908,-3.1006983564955783,A
-10.874844767062774,-0.8252616378841756,-1.6595564392372124,A
-8.126772441222586,-1.2198541925545618,-0.8610856821415166,A
-8.004686139748921,-3.2219562606185637,-1.8796932006119969,A
-8.212601569273628,-1.78058938241432,-2.43342835176647,A
-8.631655700822567,-0.39150729845502813,-2.491093363339634,A
-9.121470136509418,-2.0678235747313347,-1.2211487496675257,A
-9.37880666245315,-4.860842323830575,1.4729166769265718,A
-10.88942909897992,-5.210735898585363,-0.1378215572760632,A
-11.246038549949947,-2.329379886866189,-2.6571556426858542,A
-11.559876778528958,1.0378066114787428,-0.31891253759029586,A
-11.600396103836221,0.2609370091700851,1.3225174192396043,A
-12.08873816831102,-1.596254263175248,0.4629560000707413,A
-13.946473060374537,-4.710875134954147,0.5947211031469855,A
-14.492066403769385,-4.390644255130262,0.3697842798393048,A
-11.668535910654487,-0.48614261593408914,-1.0419787208198243,A
-13.656325151277791,-0.6056935012459613,-2.8912421849842915,A
-10.274901176566713,-1.3207205159307842,-2.9630763606211112,A
-8.267886785626743,-2.44838325620744,-0.6536324085164587,A
-8.33643008309183,-3.2285266114191726,-2.1356454380117045,A
-8.911880403117749,-2.604682953886231,-1.8542818249865212,A
-9.129142983948622,-0.7154658504424857,-1.5492233273885385,A
-9.54501137269707,-1.8304401273660416,-0.9917536810722488,A
-9.163138835116165,-4.084645329436909,1.1474848827376358,A
-10.36113973935339,-5.3538941441050945,0.894617560188973,A
-10.158226550708887,-0.9079809601109257,-1.529438078433029,A
-11.252090338950579,-0.1946904755201587,0.5687539776287257,A
-12.232872855567845,-1.438722673992744,1.3575077673812828,A
-12.102247094981927,-1.4816101626585132,1.5603266567157523,A
-12.874291343707682,-4.589046953349156,2.138738744106295,A
-15.114963720683875,-4.396087476190625,1.1271146859711836,A
-11.488054723485947,-1.3517124851758728,-0.16408674648040775,A
-13.632257668786936,-2.873786927693633,-1.2653969154718174,A
-11.91297964499225,-1.7167846485801004,-2.822777049320986,A
-8.488731241210735,-1.0991715067544818,-1.0257114768473312,A
-8.049888516670025,-2.3322964838099027,-1.7313858306079448,A
-8.78522572846637,-1.605618310566305,-1.7822331702912384,A
-8.535821672412855,-1.331820619158531,-1.175984008602542,A
-9.867735474401327,-2.9922629255328776,-0.09585304338493245,A
-10.098080792928918,-2.768020770792134,1.0500803963838512,A
-11.530068034030421,-4.77271975156768,1.344015954065272,A
