accX,accY,accZ,Activity
3.1567359666707917,-3.2617301783777317,-3.0787516949824636,A
0.14079319660931186,-2.5366281499489762,-2.44456732551128,A
4.075381861690011,-6.744767886059916,1.3613321295900747,A
5.495429779180448,-8.731027866539732,1.1038203822406405,A
7.204768775278753,-6.211154003223451,3.698732294722765,A
14.93643935208412,-7.325329660746466,2.6576796942021024,A
9.566970632421265,-6.4493086399413135,3.37172317467785,A
7.1952819868731055,-5.878316347242976,-1.184424124337603,A
5.032168746658814,2.5137960029789377,-1.6255655874856947,A
7.692182042363891,-10.283407429046463,-2.196102213267928,A
8.15626292254796,-3.1397267607475063,-3.1252607118701436,A
6.00242748805058,-4.18252019737751,4.228732134378004,A
8.23908255766565,-4.804273662701431,6.682352187560646,A
11.193919046022726,-4.572665429112474,2.598471118355897,A
10.605357699037231,-5.263913324797335,4.832501124632126,A
11.894236204437595,-3.738778793571548,3.312703305188963,A
6.624243571157733,-6.255667890263862,3.032232026398098,A
3.5542061210079674,-1.9126776020276262,5.384530581287999,A
6.295015141750417,-0.5583976579012496,4.7629578275733016,A
7.847960727124797,-1.9458535945218665,3.3885237637629815,A
8.904894687138139,-2.814022347210848,5.390300294251755,A
7.40688523360787,-6.849687894626827,1.7067633725420526,A
4.522363923120365,-7.7155231375856905,1.4367233872692928,A
4.797169559271685,-7.2208286525165555,-3.3297104718782986,A
7.46688166372939,-12.901848716761553,-0.7605927340216807,A
6.007345673614464,-1.5910489472917533,-7.181460740094618,A
5.249185331294971,-3.9467898930919847,-1.4815292558490838,A
3.8493223474561327,-3.8645428483829463,6.518861301629906,A
4.610377929792632,-1.8555722637981997,0.3613153340413522,A
12.527906721179455,-14.142400086795803,-8.837658299512979,A
14.354745432643174,-12.603938287282606,-6.046520683036582,A
15.155436531023685,-0.6402093593761631,2.809165397507371,A
12.259770395425583,5.40897864046142,3.493076623349265,A
12.268242755213933,6.253544203811629,2.8997260851257365,A
9.97454337687306,4.544883670249328,-2.529449752958845,A
7.278900010424831,-0.58843949821038,-1.424516345524159,A
7.097264145746141,0.5826108929011323,-2.4344427409263694,A
7.826378375517354,-4.254849336493883,-0.44039745594948604,A
11.799935421867524,-3.107812992482284,0.7856548345444929,A
13.50995936229359,-5.437352059700592,1.06675092012928,A
10.02658383562921,-1.915002010250463,3.3212617996357845,A
9.240441211487637,-2.2922749939707336,3.422612005628849,A
6.663597869969623,-1.6286002937241006,2.6168204260566466,A
11.34531884005145,-6.421133860353223,0.1718932793866551,A
19.997437090629337,-0.7038248536072511,-10.767258332111437,A
15.915574888815463,-4.81207069206955,-7.11935300218767,A
13.766011048491942,-7.546031303995034,-4.436222360717067,A
13.380763739554858,-1.1741830477355488,-3.1071978013277874,A
10.038455100562912,1.2315169206432421,-1.4473365374333242,A
9.90108127695502,0.6672208192294472,-0.5132040599847644,A
7.760896495433691,2.5648826912910203,-1.693512912248912,A
7.073853430951454,2.8237974289533465,-0.6358509451694452,A
13.145157611625363,-2.0217430500180344,-0.31370903096567787,A
14.63785562482792,-3.012525904186358,0.3937013205933601,A
15.51419706141362,-2.6162469086164144,-0.49056662708521925,A
14.110890821667951,-7.571648552244262,2.0453239899222893,A
10.64875042189546,-8.803096467468897,1.3172619428188586,A
8.15686689934891,-8.922989257022907,2.4186544091131283,A
8.024161202145994,-8.258313779310457,1.9602586257688757,A
14.537990931338271,-8.773867173507089,0.9229141072609416,A
17.149819741059634,-6.832943364167793,-0.5244961606425751,A
19.82161853160058,-5.932799420018622,-1.9253361378592253,A
18.360819443007504,-2.1575291858932366,-2.8959275320795874,A
13.755282207353913,-1.0947638608575985,-2.387348723139623,A
9.779348948935258,-1.3144507155193716,-2.9540420161150265,A
8.138362299113735,-2.1245604913346603,-1.8762000697366532,A
7.522099317217848,-0.620291670045086,-1.371764510980182,A
7.719166767836267,0.1258538608697558,0.3688996092599971,A
7.1102201706519965,2.758736405569655,1.1075242721722534,A
13.719251236863716,-3.250663219071242,1.4301716231660608,A
16.618536009721122,-3.4470780606453992,1.3456948910381568,A
14.910935256401181,-0.2895727178213256,0.9428691022101804,A
16.844257670291835,-5.394695568392628,-0.2518255700591088,A
13.843759234550095,-12.305738580027723,0.6615253831796531,A
8.968007681424421,-11.706736831096642,2.6308556040656015,A
8.217991850000812,-9.648782297501484,2.1320044476326703,A
15.002250882832715,-9.712245224235698,1.2393333274261689,A
19.292967373677463,-6.929677092635571,-0.41357813689795475,A
19.871967050574966,-1.2614493957898754,-2.5786097262283456,A
17.494003068550416,-3.729163743017165,-2.080748690124843,A
13.663373179480965,-2.9141227399266048,-2.545139110233966,A
11.031010488261712,-2.1749553475370216,-1.8543686859339332,A
7.700048757542003,1.8564897598627852,-1.5038776784158354,A
5.583538400608439,1.7869565344531413,-0.24921462945957465,A
4.706641909216672,4.420273203770703,-0.4474231475208179,A
9.574067792164819,-1.0843707323093708,0.6625021674883234,A
18.783901908080207,-5.203330599951154,0.69296491671434,A
19.42939849233823,0.09951724885133051,0.175312016067633,A
19.950424658935514,-6.052560034188057,-1.5235084971307211,A
15.154311823054654,-12.198521449210627,-1.7980357194169394,A
8.042365632151188,-9.006847112440111,-1.8469521809050145,A
6.851756183194635,-8.828564188868622,-0.08169844262593642,A
6.50611510863482,-10.60029307175341,-0.2999674751659354,A
10.995121145957857,-9.40068781829503,0.46355912143396183,A
15.22859209868037,-8.813395184936732,0.1733971659612375,A
18.99924032982594,-7.210551666358177,-2.520049027054994,A
19.702603427690057,-1.6716284999640534,-2.9061271217867133,A
16.05524087045362,1.0746466845195461,-1.9693657100017026,A
10.303017618537226,-1.676531192510494,-2.6758406663546457,A
7.79232093203804,-2.447859827688874,-1.2897412743394383,A
5.5379373688037425,1.410054600554215,-1.0618192966608644,A
4.215727207785597,4.0790119797358315,-0.29039186862200245,A
5.127023845941952,3.2367306236698763,-0.8606564165407371,A
12.617193662786413,-3.341304499447814,-1.2477543336516597,A
19.954999309841615,-7.743926725063526,0.40169655082924544,A
18.64102338179306,-1.889380896394674,0.6463612409132546,A
14.8057422739105,-0.9467160338032905,-0.6779740927575788,A
12.064750121699888,-8.137629335444219,-2.1000305736251987,A
7.95874239131308,-10.244768343922797,-1.6535012895372916,A
5.16611497325675,-9.474969081707227,1.328098879721083,A
8.560568550797331,-10.33075631603672,1.2722652503221201,A
14.291113111657822,-9.574844455208313,0.10017182103505151,A
14.827504646214692,-6.987724665492223,-0.2591077245231734,A
19.81442682971182,-5.152034994051398,-1.22529005506457,A
18.126861587904752,-2.227712154975577,-1.9908740708602435,A
13.229180684577583,-0.3722088544430344,-2.2433926950628087,A
8.567938281006887,-2.015353172669039,-2.5849615631762437,A
7.454457558266296,-2.0815490001541477,-1.4501730152289958,A
5.795661958486387,0.2327904320538041,-1.076202960702682,A
6.8819901146633375,2.348905067407856,-0.8390464132264817,A
9.947622852351117,0.7937038542360466,-1.5018222694845524,A
15.501136105757249,-6.0467481735537305,2.4376775778177904,A
18.363203341078705,-2.870332072010673,0.2876540565451959,A
14.96470156014107,0.76071310867875,0.04192226868879531,A
13.660688826340541,-5.703318099718,0.9824881113265662,A
10.278183217291824,-8.61952258246715,-1.4436279104524643,A
5.9085453658044695,-7.863472336187922,-0.13514151048723014,A
7.762590055028115,-10.110334821820041,0.47264200644041215,A
15.23882478012436,-11.587057109638076,-0.5685985487405965,A
14.620023180236153,-6.952669931597031,-0.8748474680080833,A
19.44008964562744,-3.517861707591076,-0.8940388432448163,A
17.388866806899006,-1.6016898416653562,-0.8987570378828853,A
12.336525791175976,-0.9585366805879417,-1.95828639060754,A
8.660832806297865,-2.0610023937708797,-1.708142285738196,A
7.448916374455111,-1.5569374513257122,-1.4253755237778911,A
6.12545732929844,1.3409245346818148,-0.6271519808485239,A
5.169156598572581,2.923656657685913,-0.2200253904055936,A
8.50417674227995,0.6335601209594663,-0.10864743057882045,A
17.012992200594464,-3.4200307123569873,-0.1558657610848838,A
20.24600107052955,-5.610497269193962,0.1296186831248147,A
14.805310425226764,-3.243365442014662,0.5215654155148544,A
11.932965391851075,-4.765420561543454,0.1483732218903244,A
9.695677164901074,-7.357710329466766,-0.6725406389304217,A
6.838192767345508,-8.293291344579314,-0.33413803926353325,A
6.170843876131881,-10.65493444582024,1.157347518260985,A
11.36766244312804,-9.071679268068628,0.3118239775633527,A
14.806935360025633,-7.649839781613214,0.3988771719149776,A
14.629834817259923,-6.941928642720118,-0.37608941275473073,A
18.95871273774464,-3.3515889273580854,-2.220657091155852,A
16.14742252616308,-1.705273947555651,-1.438710186238926,A
11.192625029838698,-0.3898561451754854,-2.6849606106366704,A
6.735321287292617,-2.581497683707901,-2.3368745665386217,A
6.643278878067559,-2.4391154211211634,-1.7177877257534728,A
6.450669015031145,-0.3971659741718237,-0.36347572903446745,A
8.103016882462484,5.216747034342484,-0.964698739912191,A
11.03220023796348,0.12607811113576103,-0.4842107293960629,A
19.776344454820066,-6.747538010675361,1.4826068629367999,A
18.000191527620863,-0.8929711949694941,-0.6472308433564274,A
13.171792269871487,-1.1962347064272725,0.25685128085357917,A
12.058026727784508,-7.775744566744141,-1.9148768436502204,A
8.757455734183157,-9.26045442790576,-2.645330769348638,A
6.095944581677391,-11.108695608450072,0.1693412547584776,A
8.021738815262252,-11.339218321087836,0.30840122622035016,A
14.829939179398975,-8.194448575092505,-0.9372632760479169,A
14.881891594037103,-6.769651230299551,-0.3139822077237772,A
19.18868506276601,-4.746265612644344,-1.7670802130431789,A
18.40466255275265,-2.1678952908445965,-2.483009715438873,A
12.289563392457218,-0.7489630026386063,-2.343799681765389,A
8.093597287380659,-2.003708564416665,-2.4662835803826226,A
6.711126020316907,-1.8190882641081931,-1.2155545823878784,A
7.1282892189908855,-0.9508722778547226,-1.4216645927555203,A
7.536767393924162,2.4676662495392283,-0.4155775446925339,A
10.487734088556946,1.8787196006794273,-1.3948950955758637,A
16.013491887358537,-4.2837168020963405,1.7759655341287364,A
19.8629415705189,-1.837492539093342,-1.583946105661825,A
16.426726942963338,-1.743286220159445,-0.01881404262532276,A
11.882207400295078,-6.26437752106922,1.7383343364359956,A
8.774928170138887,-6.8974598923259425,0.1679485581764687,A
6.436637029749203,-6.573138989241659,1.320016900600992,A
7.9383641686960935,-8.291425343795877,1.1976096059217844,A
12.81221802200774,-8.380372029948546,0.7381104391645494,A
14.86487187258895,-5.888901519214991,0.4438639443108445,A
15.47588546085543,-4.334866600777318,-0.1591706072184771,A
16.148001831480723,-2.5466499544638452,-2.2049727671077526,A
16.545092067068623,-2.1738222195546006,-2.587290495801577,A
11.611345148277922,-2.0386181709625455,-3.301504203128227,A
8.292671107784793,-3.5705605779902463,-2.7221227979018248,A
7.784455260061195,-2.8097557605076227,-1.4185376533171623,A
10.294295418617995,-7.8915713920977515,-0.9475619120146299,A
9.216164932779062,1.4114014458743815,5.465210502779854,A
5.376094243402462,0.5093281655907157,10.049505427480984,A
6.418275651163306,2.76090328038625,9.241073842173117,A
4.471998424664473,2.3749650286619692,8.05195862024726,A
2.314912157223764,1.7533350613583458,6.158261814133588,A
2.212109573766221,0.30876112485741297,7.902749793837812,A
3.432180609638357,-0.549660360271433,9.161082173854288,A
2.8961214898052914,0.9573739558562558,10.227682041064622,A
1.2884233926712678,1.9798876488310342,9.452579932308314,A
0.2483644329849699,-1.6162003546988257,9.74370336542343,A
-0.3374398175161251,-4.573830485127374,10.740250157504516,A
0.7206212335230706,-1.3888200849169543,9.878119640227965,A
0.6942548023376892,2.1354995527606864,4.7969776193651885,A
0.8024084432729581,3.600754050390661,3.019066578746609,A
3.805577120154532,2.010583924578227,1.7260822848784863,A
7.141402698789427,-2.805579326137004,1.325041432991332,A
15.467692458340853,-4.658645961388077,-0.6517201615051692,A
19.356601100998986,-0.7951881846511545,-4.389313065317751,A
19.82099846640735,-9.29205381708582,-0.7156581243344395,A
16.03720107301318,-7.766906127666016,-2.378489347379439,A
10.294241035010167,-2.205597620872342,-0.894806956118491,A
7.230340887058403,-3.1060555053976757,0.9082233831408664,A
4.313660284448388,-5.483567423937914,0.23375481282419527,A
4.101670294127352,-6.337812035060769,1.7909096440227845,A
6.579671211306824,-5.581412082996805,2.988288146389656,A
10.116528833507896,-3.595814658266096,3.2959802975676826,A
13.823541962508893,-2.0103921015711417,1.4655877319120905,A
17.021822129987072,-10.266086236573704,1.577793985745565,A
14.897379275898642,-6.652374382892463,-1.7671828072782922,A
13.852364708853742,-0.7420114185177911,-1.5923969534687141,A
9.960135377988891,-3.413500734478115,-1.5136901451912077,A
8.39961389231104,-3.310577323924401,-2.2974427196134566,A
6.904936823785071,-2.4548357622884702,-1.8855726394797003,A
5.9813975026368125,-0.2011871712507007,-1.4027930266272106,A
5.412213574538279,-0.32454689674089066,0.1746883555462503,A
9.166326875944332,0.9430378963394427,0.511973442895684,A
14.328860738964455,-1.5937615366249902,2.129732080757004,A
20.389748581376807,-2.373574246771368,1.6386993527039815,A
15.480442483705986,-1.8322228689279947,0.9125844960748983,A
10.738564770000952,-4.284400656877586,1.2342156466809941,A
7.520665572711775,-8.015851782401327,0.7842377405657347,A
6.852623641169913,-7.147525223059848,1.3393397871908153,A
6.443108157191367,-8.654501430605437,2.3530323514795675,A
10.470142316846172,-7.656168935691433,1.5822514280677515,A
16.55228398045804,-5.834511738359769,-0.3005315009236875,A
15.87891695463385,-5.497200498381066,-0.11440590857253863,A
18.376404461487663,-3.0004445754299307,-2.531915302533061,A
14.43477576426933,-2.995592201183198,-2.5831266252970013,A
10.45284359717492,-2.4630708277183313,-2.32773550515743,A
7.679402461198847,-1.819800173354209,-1.8849684828844897,A
6.46294072567618,-1.0974626803690233,-0.9481450489941367,A
6.781875570705218,0.7749994679211656,-0.018143655298274917,A
7.596815834976738,2.5269472455245894,0.20216415454976544,A
10.389912738246204,0.8724263141002754,0.0628776908670683,A
17.82440540072773,-4.363216741896997,2.6061710725339675,A
19.710040910764246,-2.3297737046183222,0.0662844703518814,A
14.694717125860713,-1.7940225498412723,-0.24824038290502382,A
10.914136085652425,-5.5965593467277595,-2.1962286069196533,A
7.750309543172564,-7.808995677711869,-2.3411913349778706,A
5.224710664789301,-6.26311996315745,-2.180234407363115,A
3.7876290215415267,-10.7105222787383,-0.20454649819954934,A
11.433467702233312,-12.657103485248141,-0.3845997591661943,A
15.227221779388316,-7.699977756758755,-0.931433873970132,A
16.76371869148357,-5.190450167886619,-0.43078726950710095,A
19.684953829097864,-2.498726090293495,-1.3690570842370668,A
16.406824773271072,-0.9480605310932166,-1.4996838591294104,A
12.648593671960931,-2.4307408165185995,-2.315457885238679,A
9.409281333093988,-2.0459474856688153,-1.7300328194668353,A
7.160062404640413,-0.3370760711997156,-0.6870505227650829,A
3.9181067080887297,3.320138069939347,-0.022639172638386284,A
3.5804167513472125,4.246976105856873,0.3261466638493702,A
10.719464952831835,1.4478023239240208,-1.7826738409255871,A
19.791834799740172,-8.65742588500923,1.909142949147447,A
18.75012329339761,-4.068359124533614,0.8042665570117006,A
14.80288663189868,0.9846608999438873,-1.665350983210625,A
11.024422367401861,-4.95168955251099,-0.7227065078956636,A
8.407718018153279,-8.646980631540119,-2.889186339717376,A
4.7571645714407165,-8.13983411357341,-0.6709393152056334,A
5.177923414199899,-10.742668489729859,1.5877937458312563,A
9.519312452265476,-9.727051347944837,0.11860358097365571,A
14.937691429363117,-8.367360431096316,-0.6435734356025518,A
16.933205641672853,-7.025093185005204,-0.8153431339002734,A
20.335829039724292,-2.6047348274808892,-2.8621742806391097,A
16.48470812614323,-1.2524260374893672,-2.244139376576466,A
12.31984393322859,-2.542289986320173,-3.3065042095517576,A
9.462324447644527,-3.9195860135395457,-2.075858744335656,A
9.294876155683458,-1.7058782402954653,-2.45340982661881,A
8.226541063025008,1.0769461946217067,-0.8708020529881193,A
5.958511816809268,5.4623989566261395,-0.5810871572711761,A
9.60306429841592,0.01564538465397104,0.6601863782081963,A
17.84097762033957,-4.32064837415319,1.9141348436493744,A
19.696137249215468,-0.22183527230773858,0.24863305165736405,A
17.677070785079106,-1.377181275620083,0.0917057762649073,A
14.27954859702395,-9.24077294478033,-2.332062108585674,A
9.313004320587309,-9.688306249523045,-2.9041702145900303,A
5.913494568425175,-9.48963371962599,-1.192751769848108,A
5.6008254836519,-9.735249843392172,-1.5368746482527036,A
11.87336877225135,-10.892840356822308,-1.7588726068820333,A
14.171114921240434,-8.401087215530344,-1.8216333825704263,A
18.93100265564752,-3.8981778648334107,-1.9178193067743923,A
19.75017267779757,-2.6218359791486647,-2.2246427335945076,A
14.736572686003218,-1.3653576857318686,-1.776881609055657,A
10.638313704806606,-3.5765109700628543,-2.637459577420259,A
8.308813118110022,-1.197631409835261,-2.755674128313089,A
5.619668652391671,2.991599981240027,-1.4161918397881907,A
5.348232219813097,2.0509437925956564,0.11469120229175236,A
7.811322243062794,3.5685914559217586,0.14593632380924704,A
12.881495254631794,-0.6743268157679232,0.9047416989588781,A
17.986204398611072,-1.1808315039214428,-0.17857335922229578,A
18.95492271325263,-1.2180334188112982,-4.1879736596852934,A
13.730717674224664,-4.496174014498369,-3.3584696595539345,A
11.221170348423675,-4.937032773732131,-2.4505454924959147,A
10.102025687310595,-7.2586371863035515,-2.4444219648122196,A
9.871025720355513,-8.310168412617815,-1.0443202074701583,A
9.381945992523155,-12.663445965414466,2.5214933785344065,A
16.7454690468218,-10.822453493033969,2.124889286646255,A
17.023544807413597,-4.326719519983791,1.215978559353206,A
16.35734257144728,-0.9776066606107398,0.22216536918726015,A
17.04967856770283,-1.9320221759853458,-1.3020707074782303,A
15.439606725623065,-3.896975482510207,-3.234679298737065,A
11.08446917529479,-3.306677740340287,-3.642027205628846,A
10.01630012841757,-3.425834508764384,-2.495450111606791,A
10.911806368348822,-1.7101622620920587,-2.2762546333021993,A
9.471567673021672,1.1355488127816602,-1.425461864473402,A
5.66018497734003,4.7852522470092635,-0.857692971697281,A
9.504908654275608,-1.909459692123528,1.841123220208984,A
15.923258391512071,-1.6452731231071203,2.4349533809090786,A
15.275340909672508,0.8654958871001712,0.6084385338504305,A
16.348327134374152,-3.222276298180547,2.110548295098796,A
13.446553261235909,-9.57036193329466,0.5364038836987561,A
10.292501548789009,-8.712246185729503,1.4331637937536914,A
6.369319251495684,-7.5668649189384825,2.214346531635517,A
11.199521335546793,-7.449193714236404,1.277952349625286,A
15.601920289765113,-8.430329413561072,0.5380150835650507,A
14.89139999138578,-5.309974316523555,-0.4727309398490559,A
18.42836049168895,-3.3478553305238536,-2.488213363146906,A
16.281532491848512,-1.6060647065057887,-2.300004577067214,A
12.07687916182966,-1.8839719819289096,-2.9852070484956035,A
9.622449535309245,-4.101320482208947,-2.3268981172385597,A
9.572988459159648,-5.599735306771852,-2.6362101321135323,A
8.930597736563255,-0.8203170058052672,-0.16132961886027067,A
7.291316419601525,4.198734206394111,9.015703638761435,A
5.116675392347426,0.5675233575368003,10.272723511898445,A
5.546767934892989,3.0058330881298936,9.43142209568517,A
4.642237669770851,1.7432891329557347,7.224497129089798,A
3.093773276823331,3.334825551842506,6.204296946751722,A
1.9354144829195805,2.3299086758037535,6.072698635981589,A
2.7390979057606657,2.753107023534146,8.054259690827276,A
2.7666219715421696,2.2420872374513507,9.702928214192818,A
2.333337687996376,2.514779052716436,11.73117471798345,A
1.0555806979399565,1.271341497859269,12.460488237680574,A
-1.603788019649779,0.5284694106647508,11.12748674373368,A
-1.0771212000746269,0.12785738076769745,10.389510381424902,A
0.4244325304409946,2.7568847900644915,7.487521970601574,A
-0.8182213172714081,2.206158130767228,6.0344630993178825,A
-0.12225940276160785,3.386574284866988,6.259880688702525,A
-0.14611700954126053,4.276137643978919,4.073934506371109,A
1.6384302675846087,5.097010253803243,1.2694869594416858,A
5.655257959365984,3.230746583522484,-1.8902603437518115,A
14.92160289859158,-5.172041241996489,-2.5171616776699763,A
19.544224090351797,-6.988551895328268,-1.7967305678773506,A
20.104820524801383,-4.580333456716718,-0.6325800007816952,A
15.355169921325029,-4.699353611261592,0.714445333324803,A
8.608779531213228,-2.5963015515547596,0.397537768510768,A
6.98616631329921,-5.117390229637998,1.1572966278406562,A
5.371578561864638,-6.462536349458048,0.20921310562414364,A
6.807752787458634,-10.41846785896044,3.403635933612035,A
10.102313586646256,-6.710606987878527,3.4727965310056654,A
13.589083180615402,-3.456724404888388,1.2020652169276662,A
14.362736289298788,-6.847888428909446,1.8915601051501643,A
17.098610185191685,-6.864723847780223,-0.4601005010666044,A
19.5945166171139,-2.4124358424834167,-2.461576839781697,A
13.55391300667548,0.30834983587922354,-2.561164215128061,A
8.986491597745106,-2.152274953982057,-3.4306141498263942,A
6.843079061195361,-3.9805639006543245,-1.945073184105847,A
6.524387574686049,-1.9800226814081778,-1.8377847120632222,A
4.575778158523983,2.4492914503740892,-0.4542284820765873,A
5.386535405840519,3.9616430250377372,-0.00895437666572781,A
12.095933602741855,-1.3381224352543692,0.7059761271148041,A
19.094242219693083,-4.735106733440902,1.5278798252267216,A
19.018808233114733,-2.0394749666372203,-0.04332663553345634,A
13.842544652052286,-1.2919622701450122,0.491494912935101,A
10.73998527520795,-6.525262172284101,-1.6065467360659849,A
7.338095159930788,-7.662303813662264,-1.5023989779258593,A
4.730702865693444,-7.694243799671411,-0.5981600248279738,A
5.407851501578332,-9.755018943843258,0.26841224165309824,A
12.71368521544877,-11.430053473377685,-0.5259276181406395,A
15.795253296093538,-10.040361492287857,-1.6547762651826154,A
19.05554797571537,-5.189139835828723,-2.2814873898113786,A
19.248369419572136,-0.3754745012352276,-1.491522273467291,A
13.831722219600863,0.22647161284283626,-2.148570110350521,A
9.68096046025656,-2.4775707457084866,-2.7998390348982802,A
7.478619602253975,-2.7427778031804895,-1.507717458763479,A
5.496112636621131,0.40410425278408085,-1.0748836800401986,A
3.6929282661348575,3.531295109117926,0.03724089154825581,A
8.5018484021302,2.9857680730222196,-1.8224333613296353,A
16.15362975890579,-3.8217273152891873,-0.3393208995512913,A
20.53597858915913,-6.734448834208497,0.4558628841991875,A
16.361647122945694,-0.915799698909925,-1.3675679623888348,A
13.303978115309949,-2.638666650096227,-0.6044086539704725,A
9.680847741648584,-7.718292898334585,-2.1707925768526795,A
6.8939400225486835,-7.458810887842297,-1.0208431453316433,A
5.234738657906007,-6.02234388143066,-0.5092533721581701,A
9.527952851424075,-11.606602558366298,1.2479451176956413,A
17.001587678844373,-11.993065889436108,0.6593884058019291,A
14.766851723940839,-4.2103105121096185,-1.0033725722499538,A
17.828112280655347,-1.3912881739640632,-0.8636495267698869,A
15.054279901926837,-1.5433998212917595,-0.6230305501683526,A
11.157435429372256,-1.977590468712342,-2.774681392801715,A
8.438723773446888,-2.79415754040964,-2.5742859528838613,A
7.925282714737367,-2.8661604909389142,-1.686125011084199,A
8.902359726184757,-0.2215830667900679,-0.9011750392710095,A
8.468330584486315,4.112904843664829,-1.1754960490642004,A
9.307799692472692,-0.0205145566502536,0.04353287100349895,A
14.540975802899196,-5.517275024309355,2.5783350287634543,A
15.470483265856902,-0.6832819825786078,-1.0271894987174592,A
14.061393916645159,-1.8648659993774346,1.1064494527732058,A
12.183712713666209,-6.138644969192274,-0.661898033419493,A
9.52483290900116,-7.354755803936868,-0.7679819404227165,A
7.8929040311351315,-6.336257602373046,0.6234821710871713,A
6.22564475728392,-8.779675404062788,1.4312111946086143,A
13.166395251018251,-7.843484890950143,1.302644309926143,A
13.785761910535243,-9.872366107092063,0.9657947122824933,A
13.879291694416063,-7.233754055327552,-0.4165959650261979,A
18.539510473131028,-2.1981445165031652,-2.054461055525239,A
14.419602743126871,-0.9844613178939652,-1.365338323443242,A
11.13973959763155,-1.6063165419790426,-3.133130295662805,A
8.44610762532542,-3.123621175215724,-2.5692497194374093,A
8.601412866395824,-2.4760012513844543,-2.0747789532919234,A
7.245834525821692,-0.38723866183068717,-0.6861632022552429,A
8.666146086194658,3.8541836445801736,-0.339339437856586,A
11.791226169456527,0.3020991608153662,-0.5333880655576934,A
15.491801020697395,-5.279104855278904,2.0351188113852685,A
15.692698359180913,-0.6166221757478393,-1.3533146783641323,A
13.6119506632125,-1.9541214490054735,-0.5083396876109159,A
11.919591804191821,-6.180792438824609,-0.0556994696251271,A
9.66394474285864,-7.952980420446277,-0.9396198978361672,A
7.4372341570530285,-10.712256161893148,2.516444443280227,A
9.44200743057846,-10.866508479744432,2.840262732406341,A
14.763357019308913,-6.285057720763485,0.41243504832519173,A
14.149449022304125,-6.1883218510652735,0.6339568694624073,A
17.46704574305019,-5.083568033317755,-0.9323215428792087,A
17.58405184286918,-3.8185044436509252,-2.5075278134781542,A
13.381611127548886,-1.22094119736645,-2.584193396228739,A
10.54213011846548,-2.4491571883017302,-2.505395815230605,A
8.773309110006396,-1.6186984405988287,-1.2696878390819768,A
7.108003027580446,0.13187906986589268,-0.7582925483192389,A
8.619891084914586,3.1600083446846554,-0.05580395197749308,A
13.868331874817134,1.045124863095425,-0.6579438742435445,A
16.361223503961195,-3.2923721164841737,3.1056231314908618,A
17.386571149598126,1.44065935434848,-0.1544802590920104,A
17.734865718279433,0.8253422029928544,-4.542881784244285,A
19.08954423934381,-5.987117593133757,-9.280103526831224,A
9.895882997012556,-9.397481643674345,-9.735480954872523,A
4.639889500525206,-9.480651803493577,-6.055236013587454,A
3.0035656261283603,-7.944243375175448,-5.064370129970398,A
8.783593423560829,-12.165614936061933,-1.3744977853022977,A
12.355069017282553,-14.7202195061403,-1.0150305209525035,A
17.963396812234738,-4.384912665367733,-3.2319235472946484,A
20.026319600190092,0.04356081000095428,-0.01664981099852166,A
17.75718323558967,0.019830823779174278,0.6754034480497166,A
14.986911975456492,-1.7892579919163403,-1.942004070352827,A
11.690181129595896,-1.6760210835919918,-1.0742887378620507,A
7.7661934364611405,0.6920338019726996,-1.0347572005605061,A
5.415864493418782,2.43409227123003,-0.08495977710251677,A
5.8235888111270455,2.8614190194776565,-1.7415439322808677,A
10.183237219395762,-0.4889217415290439,-1.5204118216474738,A
17.088791151589092,-5.132828890124098,-0.11031831630513259,A
20.094856239288234,-4.411369584906991,1.4065370100850805,A
17.534745969294573,-1.7343352603601023,1.765504946066837,A
13.531342347797452,-3.5438581394170314,-0.58697257800106,A
9.855056033771513,-7.941647979259653,-1.4001349357536919,A
4.112336106242041,-9.365830802686771,-0.6448928385621138,A
4.742779077482225,-11.944588418544695,1.7004284925375979,A
12.848410438088571,-9.68661144873522,1.5962158470282228,A
12.819705455909324,-6.4759298287114735,0.8569337039013549,A
16.142898751717365,-5.1784368334919,-0.1681585469780762,A
18.5072592715364,-3.3667003814741676,-0.4869033127603958,A
15.827752468105954,-1.8976757641675723,-1.1889758562341322,A
12.680713147746877,-0.9211231646243196,-1.680246256429362,A
9.810720155758965,-1.0687587686381308,-0.8159793370841704,A
6.972841961365605,1.5934129035559217,0.004101567644457633,A
5.336692776027703,2.1808060336793087,1.1258359079873472,A
8.11163329945178,1.8916452965029311,0.4944501913575233,A
13.890540230942236,-0.27255387441396106,-0.4073259404633664,A
17.88529226750189,-4.010430607618959,1.1325163402553917,A
19.419865664444824,-2.559971902388759,1.6784523749249727,A
13.469085124943604,-2.8953391058003866,0.7606193007773678,A
9.457258248902905,-5.291689387701211,0.028087055882029865,A
6.951071467536598,-7.708639659817642,-1.0243814378231233,A
3.7342562379270308,-8.823887807229186,0.8569447153203037,A
4.958515476558414,-8.484825357579933,1.8075876497397259,A
9.720995856387617,-4.999392079248459,0.3829267524147431,A
11.0236637822652,-6.598272083232789,0.8671695570537579,A
15.370377568894675,-10.315767529077348,-0.9150803318702545,A
19.9121159081916,-5.0525042565503036,-3.33288973068756,A
16.996889917898457,1.217924220316275,-1.7575830920549258,A
13.33179998907875,-0.6047110072157957,-2.2901013918868705,A
10.027841792290008,-3.3413893584273318,-1.7597932032591839,A
8.547813062657376,-1.5617386170790768,-1.593319544429355,A
5.196564847453639,2.0911383312526737,-0.40318150477393866,A
4.39354517416783,3.3788201039734056,0.7276458718332897,A
10.011827229971992,1.7030304555601252,0.3716030242411032,A
18.27132052247626,-2.072110206441525,-0.32880204047167005,A
19.77357955734538,-1.9329433750541627,-1.1524570655648883,A
18.539624173355346,-4.260159990518825,-1.8186568549371953,A
12.613939892308668,-9.522561033506717,-2.768949861086794,A
8.163699324245595,-9.26674022921042,-1.0542445928886424,A
4.7764672637986525,-8.245006578822395,-0.12400724991029154,A
5.369583440280226,-9.947465636074448,1.035946893843502,A
8.271275991249675,-8.915499067398464,1.0196609026380956,A
13.6362477154652,-5.722834720761009,0.24213060406187947,A
17.665775811720415,-10.121531110659484,0.029916692512796925,A
19.875679605684947,-7.366279827316579,-4.677764440036414,A
19.584243016075163,1.6316846499781175,-4.006842590673034,A
14.911603596643486,0.19101739397647938,-3.0476842560522917,A
9.118125522513353,-3.5623321799765586,-3.7178501961513435,A
8.679876114697091,-3.5594793638418682,-1.9185008994884971,A
5.62170571838063,1.7590270795703267,-1.7942792747527911,A
3.9292169293937955,4.59836205422362,-0.004804069098811924,A
5.849945186801687,2.972864261566537,0.3485121638076147,A
14.063227101570158,-1.3356005608772916,0.6421801212506484,A
19.6542139170512,-7.4995076091687665,2.146881829945938,A
19.471391923639416,-0.565107602483201,0.4935009420933531,A
14.572735581865585,-1.776505271989218,-0.2720572343980605,A
9.81071143320661,-8.146602452719076,-1.2758947548097592,A
6.312624689725698,-7.871478750995933,-0.7677129755448608,A
5.245848991550326,-6.124388955841738,0.4104231498703647,A
5.014260450813655,-9.073017965711541,0.9994963225454981,A
14.045910485376638,-14.829367913230676,-0.30109915834489676,A
16.298284348052572,-8.985509181789974,-0.7643910533703617,A
18.262746937158248,-4.083277732212896,1.9778460853151654,A
18.290097931104746,-4.435152992987834,-1.185089979410632,A
14.545224055306006,-3.4854623432424825,-2.3101735483664205,A
11.002260128990775,-2.2063780582432706,-3.058709432561549,A
8.39400479859413,-2.5786434876530637,-2.465608579618544,A
7.446199971419528,-1.166328496108706,-2.39718909983949,A
6.7548835754769385,-1.488109864627114,-0.3075594444412053,A
7.211105883558966,5.348263131102265,0.553911520412444,A
12.728697958631496,1.4369137099098874,2.8803389026466153,A
16.00788325156118,-1.2033353465723897,3.007665801632136,A
17.742554448925926,0.1928366614275525,-0.5805569621937294,A
15.649120523962745,-4.473934317769927,2.141569398232675,A
11.613807952454138,-6.8937384689737655,3.844827653219,A
10.931407227831233,-7.606878799556931,4.536809767343647,A
9.841792711118652,-8.282656413884682,3.265894468363858,A
6.896002693958088,-10.332370713172132,1.9070310014334984,A
11.421654148465255,-7.296063407225948,-0.39251402697063337,A
14.45722028904859,-7.619325622778978,-1.4326470606622834,A
17.58660451677883,-6.396154030241081,-2.250764609464374,A
20.225973112540398,-5.30601073328091,-3.164368332452155,A
15.457028699912755,-1.6206945229329233,-2.7531640762054157,A
9.965061651152302,-1.797970172036866,-1.9855248420809652,A
6.196044242221051,-1.623262391180356,-0.939241371628596,A
6.966252567356766,-0.7714111914438972,-1.0099436393392895,A
8.389402738648302,2.6349098522208965,0.00294588016683681,A
9.601736931066549,6.674926044385057,-3.0065288681731026,A
13.973129781614876,-3.6069491510756517,1.2650367344516003,A
17.168436821009884,-3.989891233262187,-0.016396577268936095,A
18.37280384495902,2.317582912409669,0.6487485336039774,A
15.982666851814214,-1.0457980398511708,0.13594801394902284,A
12.298531120744942,-7.729494352719685,-3.4744944045714394,A
9.562270256303355,-9.869894408111014,-1.805433436843259,A
5.6962364280344815,-10.449993528113,1.790580078106666,A
6.362306904458906,-10.572962479687526,3.356911562058531,A
12.213859134715728,-8.017538731232301,0.995967166269251,A
13.597266842334996,-7.428717380247317,0.8350265802643708,A
15.79551968820093,-4.963302356001507,-0.7430107116459569,A
19.500516053532063,-4.99941014304534,-1.6745379132605274,A
17.183618659416776,-2.7556191454875383,-2.6077461941008346,A
12.970507788778518,-1.7650086972349346,-2.034482478196806,A
9.695530648104821,-1.0521224891507595,-1.4042952187242408,A
7.6145942421985,0.01564348292631621,-0.7489853786238675,A
6.235253525936262,3.884199158642888,-0.2763049510908453,A
7.8380418637294795,2.9559465991666167,-0.9820721028315383,A
12.758194901187485,-2.0105725039678326,0.5586359197367804,A
17.67186291324727,-2.8464829534769156,0.55396787416579,A
19.833199120681787,0.39997103329411904,-0.18049939215386124,A
18.650290158284886,-3.446663073056067,-0.04181973986237489,A
12.633309063928772,-9.80042065238478,-0.6781736556623152,A
7.137939845913306,-7.520120713285573,0.5443306669158122,A
4.507252567652453,-6.6758559542292595,1.1052025232225287,A
6.0602708653289925,-9.020849167187064,0.927793835950012,A
14.350076532175365,-11.551875427897265,-0.4113874920169888,A
18.12412417250384,-8.943942352905786,-0.6338469810431954,A
19.946287286611074,-4.201552554380309,-2.780640342395431,A
18.194772749546306,-1.5946449961413967,-1.6116484983255248,A
13.693281195701193,-0.3649553908229264,-2.038244374597023,A
9.9556844268089,-1.5020345212889752,-2.3793246195961806,A
8.238440408525886,-1.6278921961423642,-2.1245352603530825,A
7.248061336663842,-0.05382582874508166,-1.7549194533299133,A
4.757529353839881,1.4085934719562987,-0.6113029011446978,A
7.799039288605018,1.790751049407977,0.21718344787640576,A
11.813040749753553,-0.8356128505796119,2.32435400956328,A
18.158115648363033,-1.4836940698205563,2.806692128965777,A
20.054945636194844,-0.5647961921358527,-0.8932566428830251,A
15.26484265748338,-6.002798640661491,1.6363255422913405,A
9.925446571979364,-6.038233380452906,0.725863840582372,A
6.746703390464893,-8.10914071630898,2.031947584381721,A
5.517661448078333,-8.923782966253613,2.666283866596493,A
7.924447138693265,-8.91982856833889,3.4069463654388503,A
11.37650094834774,-5.0451651190632,1.0993712399027427,A
16.556218272825667,-13.014970321420273,0.6936735233243198,A
20.22651455804807,-8.61849452956731,-3.469001876286099,A
18.036031021983487,-0.2841037140125969,-1.7491969506032117,A
12.212449676414279,-5.293537686598407,-0.6535931957814622,A
8.838226129110907,-6.303742037537141,-2.479453187599839,A
4.1944294911713405,-0.39882788877226527,-2.097864700647077,A
2.6946434361932767,0.8457960526318123,0.04261816291327692,A
4.836697648735758,0.02678238989998002,-0.4147342164520783,A
7.590382334967973,0.7491736454023336,0.563979768615868,A
12.059434103056573,2.864446631413274,-2.0648259734681034,A
17.974019208072605,-5.2782639169760595,1.3687232586764841,A
19.69835488582211,-5.15454432449193,0.10074875024167339,A
19.413234458990114,0.012866143235647484,-3.21772261275161,A
13.65955661684243,-4.322745736909139,-1.8873132140148137,A
9.04412158361923,-8.070537879442526,-3.633619091236564,A
5.860573893920721,-7.458697149253225,-1.9537029629504876,A
4.645713962364669,-5.520407431525053,-1.3538984726090504,A
5.199392108328348,-9.920052658366947,0.5637360484368971,A
10.836879572394562,-8.08564565719758,0.05993444782510711,A
14.6211220170757,-5.831176536796364,0.7234668311302869,A
13.138005338350524,-6.700447806483233,0.3782669407919265,A
18.652356349879227,-4.6121064122059385,-1.5142501165952518,A
16.411672961819715,-1.1012662944133647,-1.3472270355757994,A
12.765744488043172,0.17824939461873768,-1.493408845395861,A
9.216660192909435,-1.7321253154787606,-1.0227340920125143,A
7.356818899825533,-0.8661928035266737,-0.4796464356685398,A
4.16625190974752,2.37659264534766,0.5705327046228688,A
4.160089112920822,3.156235370450287,0.5960420204774991,A
9.076627361811187,1.2173165329985218,-0.1651556956502991,A
18.443836935273808,-2.0985001770369225,-1.6397423661682216,A
19.967995988197696,-8.187418772648341,0.7874847087252701,A
17.81279674603427,-4.087900543303739,0.7089329089152994,A
11.229033907555314,-4.376124167825492,-0.07346763958940476,A
7.238934654174995,-7.546416800492877,1.1479475173594087,A
3.8610794619063755,-8.27771605353452,1.0157257177217527,A
5.236574688548007,-8.719576905078846,2.438757354304728,A
8.299947300509293,-7.235751304453878,2.255693756950535,A
11.215162271752169,-3.3229753641784647,0.5605582757480444,A
14.217464753487903,-6.956530720432783,0.33696235108096273,A
16.243350021625012,-8.366297894351566,-0.8108603329915379,A
19.259524181620613,-2.430794397799186,-2.661838874367065,A
15.62939678604769,-0.44231397096839453,-0.9576069779299479,A
10.202615144660726,-0.5233656873729662,-1.0402194983568884,A
7.490859435380878,-1.4683964311643483,-1.043892357462749,A
5.700643975039693,0.09596379634456655,-0.7572126071079981,A
5.022998508167562,1.692274450744429,0.25659049054305555,A
6.206639746682042,1.4916154468549847,0.7277521232053152,A
11.953536942112917,-0.5449745262673384,0.8555428215768013,A
18.72283646408194,-3.0441384854831206,0.880230431748795,A
19.7919932588694,-4.033125721626461,1.131741382963085,A
14.782131908310854,-4.061246980612918,0.3044070735666807,A
10.200468733682758,-5.151850406610954,-1.2124815021071393,A
6.919322050290706,-7.995228156239908,-1.0215009103510697,A
3.8907636553355616,-8.149220216874363,-0.4592235226907823,A
4.000515634452489,-10.544979546411406,1.7998114247813548,A
9.260916488680909,-9.05882047394745,-0.10173607940494891,A
14.814073780175242,-8.510148418735552,-0.7539423882059366,A
15.909246365251057,-6.849218527481212,-0.9984541989318716,A
18.839756646646023,-3.937097657789744,-2.127337693945397,A
17.957156492449702,-2.3972564705514805,-2.4005132592196174,A
12.708187095982147,-1.0186578735641985,-3.157584234849024,A
9.823884559643517,-2.134859891304202,-3.539028767723201,A
8.158828828267128,-2.508613245719838,-2.465623454705776,A
7.2993029966501215,-0.9186542648723632,-1.6836225773491542,A
8.271000535319615,0.7223999677350107,-0.006435166678761341,A
9.594749739703017,1.3952333972748892,0.01901895484190054,A
13.22574005800061,-2.2440268657456954,3.0215250212921956,A
16.698339000792892,0.7171059372943981,0.39937161085378,A
14.974941384292856,0.45744140593974997,-0.32447043168053014,A
14.565559442207443,-5.95025704256329,1.3918578359141953,A
12.83452519090109,-8.955242149826699,-0.6003905040461038,A
10.344705466693632,-8.19531643758707,0.08366976333889836,A
6.603545276717127,-11.468877570957638,0.584601632119199,A
11.15405242488163,-12.410653655691815,-0.20173257162214797,A
11.40046746608487,-8.282789644680317,0.10849037651734734,A
15.244260361102542,-7.0157892183718005,-0.4608180173207183,A
20.449765452039372,-4.507292274592825,-2.502004926658488,A
17.037293750465874,-0.7001384640155994,-2.859629349106824,A
12.323435095642521,-2.7135210210962826,-2.6405973556039193,A
10.50837675571233,-3.8652461814779286,-2.2882568598797746,A
9.310390979122634,-0.3312398859759851,-1.297531707451421,A
9.11744835633395,0.17940394632718326,-1.0882351791597198,A
10.195799527618483,2.2235892331331946,-0.7745767252198964,A
8.522124878425021,1.4256853325645868,-0.627851533957329,A
10.78663075339323,-2.8373445501894743,2.360777830944027,A
17.26715477212595,-0.25152563673392264,1.017989599759264,A
19.203636990006917,-0.44988702797429236,0.18736107407979752,A
20.466175720849947,-8.585338993067586,-1.4355950913975528,A
12.750134030868148,-14.633757581056043,-4.352191365080951,A
5.0317848375497265,-10.772704945538328,-1.3833044312148237,A
4.296028654967979,-10.858189219659854,-0.5292326116412162,A
7.282648079924176,-9.528310622166664,-1.2140501907612673,A
12.877755403249328,-9.813031344628222,-1.5638286883378048,A
18.238519429692488,-9.283977493466313,-2.6532935407395186,A
19.979287684860733,-5.301983978640189,-4.0950215087649235,A
18.401563664367,-0.9226589517670108,-2.80967571234264,A
13.508611179607355,-0.9825803571858795,-2.7462225095678323,A
10.871827027030214,-2.4825981448992622,-2.1854028394451936,A
9.360490425480771,-1.7150345685886792,-2.1457028013476678,A
9.181343546677008,-0.5026190097245895,-1.1880274733228344,A
7.577671706766001,3.5794175584682204,-0.5345316294574656,A
6.704133833991894,2.2610281581815914,0.625484210173493,A
13.772657378152786,-2.091459927221947,1.4217576382013954,A
19.130851010364715,-2.217605373426412,0.008330022184585228,A
19.65795341586181,-1.8213862783891248,1.994228785195713,A
17.05620192005427,-5.280895495963708,0.3416241721290465,A
11.391602463056719,-7.637192618583507,-2.8520376809162586,A
7.898658059743413,-8.564425285172367,-1.9373721911113204,A
3.50252005488859,-9.758596970497345,-1.41133202188298,A
7.669309044699593,-10.903634004352238,-1.5779666353719384,A
9.705281875330048,-10.99791600468344,-1.8002710001925202,A
16.733910200690705,-6.787563165977523,-2.365886369759607,A
19.561098621861838,-3.9238355991383673,-1.5299248408027522,A
15.03244559252026,-2.264634118434483,-1.0243061972584155,A
11.870560342882744,-3.068042690570546,-1.6700647150513093,A
9.24418308678125,-1.133589178751002,-0.7704042500714681,A
7.238642397995531,-1.027504086591336,-0.27525854906608255,A
7.997633842966741,0.8545800034143934,-1.0965112213950665,A
7.289689464956756,0.3127933696980762,-0.8060394942464288,A
9.365569388203092,-4.329583448705356,2.081969643905079,A
17.302555589825456,-2.404189771577029,0.9221131400993827,A
13.407016507414847,1.238110049442958,0.5062978807281874,A
9.753735310060197,-3.4386834086726994,2.4529441437883133,A
9.548981153052633,-7.04496305067721,1.9397219792195945,A
9.12174220859738,-6.96276226449118,2.8143237216058195,A
9.784015542684834,-6.507697632488155,3.980466361168551,A
10.407107097276793,-5.975913924088968,3.327676936188364,A
13.33415755054083,-4.56686442516895,0.5247564142320332,A
12.468392319092459,-9.407957562341268,-0.42210584897176295,A
12.768444778121896,-7.258988953536683,-1.5851106212005215,A
16.323231679444284,-4.989855634257339,-2.7869265876927707,A
11.787363623329057,-2.30402755119994,-1.7388465341771848,A
8.479689788734126,-1.3472530398157412,-2.140987150814716,A
6.547345002380499,-2.5485528950132608,-1.0917477174748054,A
6.579728214519061,-1.0769214262953384,-0.4151138217063203,A
6.775758241927221,0.3672262784630145,0.6266456327848225,A
7.991664104273169,1.9624051789915784,-0.7309547040944303,A
11.74629269665321,-1.3931544463984962,-0.07838994932591414,A
16.571467639023123,-5.13677943167993,1.9796999291682054,A
19.043566895730127,1.5360793691534615,-1.316284548527696,A
14.828554904419555,-1.9392152972067653,-1.061233795576756,A
9.534623594300546,-7.348579443026378,-1.054427491425687,A
6.72742980656367,-7.152045392163946,0.8442331563144233,A
4.1727524540122465,-4.727170317358037,0.4486197903209487,A
5.917082928920994,-7.668718223814674,2.278701584603728,A
12.347075932353436,-8.42843729842392,1.0532455288009326,A
16.946299452589354,-6.587949665611757,0.9818860507149613,A
15.654923656553411,-3.7368280967675327,0.7896271731878666,A
18.563754526924836,-1.3095750796042502,-1.0287168047619295,A
14.657474914574536,-1.9354450683183437,-2.344638856281903,A
10.560904357980428,-2.8573484785976375,-3.0578805769946964,A
7.208708548994022,-3.754608196313781,-2.6272351739857176,A
8.554608911708291,-2.5502204076266417,-1.7638360858506517,A
8.197670359730594,-0.3534113155173775,-1.074917252171273,A
7.597893372495925,2.6047658386453225,-0.4052023066775175,A
7.921246111116848,1.9223186819811724,-0.9274246320376405,A
13.70665125312484,-2.8737135113276957,1.9004658738933309,A
18.980415419574744,-0.5340389780947832,0.6927122295857957,A
18.389801037337918,-0.3253019609953971,-1.026373684321928,A
13.327695930081132,-4.930594872931505,1.6769808480456008,A
9.247489273213839,-6.996297903934539,0.6156963765063157,A
6.364287877329873,-5.663520290094914,0.8524964218531166,A
5.547094339302351,-6.137303191033133,1.3142489842084117,A
8.91855337714835,-6.812662266859069,1.4134707916984655,A
15.268367533120031,-7.767103581045823,1.1038137030966426,A
16.82091282366568,-4.996425797320334,0.5143058374647571,A
16.07954386245119,-0.8078546247534026,-1.1660005605611945,A
12.43410196902502,-2.3379676675168604,-1.3342888958887924,A
10.131447276526004,-3.321815694129788,-1.6063664261359432,A
8.20663491645584,-2.9897807285921183,-2.1363281618486023,A
9.12844637844292,-2.021645672728015,-1.296564411001709,A
9.408615092564084,-1.4481865530575444,-0.4779956504410028,A
8.916192613902128,2.2390348327839353,-0.3350123855932652,A
9.040990280487534,2.101178389026143,-0.280951728111118,A
12.75650373656218,-3.314819157341863,1.4490236083004406,A
16.72264624735244,-1.0142830033528858,0.23881693003555268,A
13.715341971492292,-1.2030084466432762,0.9850609369173213,A
11.334920072688602,-3.3730751416559617,2.192835892191691,A
8.52068644155379,-5.6703860764914396,1.4352815639448417,A
7.3060197787383885,-4.4258774091498685,1.2105087111760848,A
6.508796594903746,-5.9617107662207,1.8128896736612299,A
9.728291187203958,-4.9954771299155425,2.0338990504934062,A
14.61248138874525,-10.113355907458022,3.524105805656692,A
15.388034707832254,-7.497000025753858,0.8690888662431769,A
16.875266019449764,-0.8057274053016172,0.15722682356284784,A
10.962791578770995,-1.0892065980786336,0.9026508573615332,A
8.35016729692601,-1.977792104125242,1.197837435655084,A
6.702143429146251,-0.6888126113976683,1.0042737085394418,A
6.273930940744874,1.1999869427083885,1.7006744817895525,A
5.345889379743109,2.07362052964987,1.169387194868544,A
7.742641418723863,0.9563730745186704,0.9480823968784953,A
14.491647325412291,0.40802015233323474,-1.9251762861903279,A
20.119365201195993,-7.909969884455851,0.22573444356153716,A
16.793209731456727,-5.956807249379342,2.543575526700097,A
11.35534402787238,-0.6541515007750716,0.40176085483021096,A
7.777622779327749,-5.329993967171583,2.7102707632942424,A
6.733908635761569,-8.409614515857893,3.341571383411556,A
5.241941526889876,-7.238998434292613,4.180890529370375,A
8.565668458693777,-6.710364284854082,4.898916886678363,A
9.451614615923242,-4.106833584910967,2.2727454798916664,A
13.99807319072001,-6.136504618701799,0.34056666827199417,A
16.30460328699912,-9.36988705846667,-1.235807036412215,A
19.73901483025418,-4.873413992736365,-2.6864918900754495,A
16.880977132695726,-2.1099585300522565,-1.8798211549024757,A
11.592416590870506,-1.4333192724420618,-1.3560826838420281,A
8.700268832249366,-0.5492237234278202,-0.28231974462601805,A
5.401251366523862,1.7371509720581522,0.136846559169,A
5.426017119330316,2.27729763954081,0.5777387768603709,A
5.933292372517407,-0.018763704158923408,1.0714842520892087,A
11.246438169253802,-0.753261968539367,-0.41745460655272865,A
18.62719987395088,-6.6317475357969675,0.2889360196710807,A
19.46463961139154,-2.850975890233796,1.3511586955821733,A
18.71547535308507,-1.8852493056403565,-3.0985422100499753,A
9.950146697933533,-7.428744012268914,-2.998409806658964,A
6.568785336210543,-7.60829221984026,-3.3481175362593376,A
3.4787952635337436,-5.873920249662238,-1.6780862646325785,A
3.377165795033138,-5.482368195714337,-0.183027833763271,A
7.009160286331234,-8.776795179724674,0.08343240251598066,A
13.161846768212664,-9.476799509880161,-0.7564826216015024,A
15.647643780022234,-6.982832274021232,-0.7911584999595278,A
15.617228482935827,-3.4845682819729533,-0.8861034557986942,A
16.747909463969684,-3.202435887706246,-0.6817676517463243,A
13.472689770155462,-2.2251960215164814,-1.4594277104799132,A
9.95306152407874,-1.2000499130845927,-2.0787048980365292,A
6.755254989513768,-0.2884810688109836,-1.2574916210861857,A
6.632513455648047,-1.3527788129467269,-0.6100390307560594,A
8.798329667328336,-0.1350232414637503,-0.8924186297980505,A
10.91877348816367,-2.010892479401873,0.31055232994241266,A
12.139548938982244,-2.149727308113817,2.4420313140897214,A
12.732484597069547,0.2606106378968544,0.5964062478735904,A
13.237814363383988,-1.977520977049985,1.3700661561974437,A
12.516261792249587,-6.304380704710866,1.8608768610215898,A
11.377663213052626,-9.065555718119601,2.455093206035461,A
9.82318572890007,-8.606651789682001,3.8762115079189616,A
8.213626534097727,-6.909780194225991,3.312504102551057,A
10.339601646756279,-5.0557218841128515,1.171398041286509,A
14.151212314980075,-7.263600934476753,0.09611100092359054,A
13.046272729398485,-9.700479609251397,-0.9375423165398044,A
18.714391366831276,-4.947675221091834,-3.457434773690611,A
17.223776602180678,-1.4543940729909774,-2.752711761941398,A
12.03121568801091,-1.6060054652736158,-2.9134291464260045,A
8.812006829220254,-4.539339558700811,-1.5912920747627686,A
6.951297577186795,-2.3153946047841036,-0.6644650368553857,A
4.019671140140028,2.8144573360033553,-0.1378688546960084,A
3.689240874048421,3.97649261477227,1.780276768653548,A
9.380331496910477,1.840679905891904,0.8546619766940277,A
16.120738915994263,-2.6511804975366893,1.5791826125997053,A
20.288743337338303,-1.9916259372055405,0.5048625164681486,A
18.168428387244656,-1.5746160759182428,-1.2130931161506289,A
13.346751404307813,-6.6633895425079634,-0.06143209633405081,A
8.156028653089894,-8.413179730571322,-0.4559994741140827,A
6.543309924712435,-7.246754306755662,1.2141968672460173,A
4.154981880508062,-9.336994857750218,2.412120207260461,A
9.027417457424908,-12.121201739367093,1.1982451844902922,A
17.15988014308514,-9.251346376467152,-1.5004492267496528,A
16.982311419811904,-7.312437621133691,-0.8718109301626934,A
20.546855458521687,-5.656982477067431,-2.8774862562777455,A
17.864411232049047,-1.8049630357332775,-2.7549015216085224,A
13.188761857687101,-0.5594228580099028,-2.704378875411171,A
8.967689357280294,-2.5425461875281314,-2.0975974532190214,A
8.539390391304876,-1.3800426736896547,-1.2049322579284916,A
4.305475995151357,6.924973826909181,0.929630559577924,A
7.556229067968855,3.6713326479854467,-1.1054776072837456,A
12.175181148076078,-0.8661001239837329,-1.881166712033802,A
17.947313334278416,-4.8348058066184345,0.8332800358856137,A
19.728414521777452,-1.6298703887140613,-2.034649766803555,A
16.527776153328926,-1.198370337150861,0.9051803189172043,A
14.19278795318632,-5.6033795029305,0.5846872578317888,A
10.462949036128563,-7.619860332594725,-0.8716128397510472,A
8.246955790641454,-8.108624508014868,0.7702753365356287,A
5.153025351685774,-9.309125842760482,0.7254254438599439,A
12.314985924488822,-7.964758261122447,0.5536318862726642,A
12.154943765800574,-10.992556816353009,0.8307936194328058,A
14.739013504983692,-8.834811437866348,-1.238456297372219,A
19.899411840276628,-1.0346949043165845,-2.3689193770844272,A
14.321469796142521,-1.0027078102944829,-0.35931605877468026,A
12.240607135689674,-2.3166533966543983,-2.332989531836759,A
10.035182303889002,-2.870187199007871,-1.1192210878065738,A
9.626483487571306,-0.4714004217433894,-1.6665080224714597,A
7.119448922996593,1.496364690405676,0.15202746527481098,A
7.555086470358789,3.2624395810164515,-0.28437037509149904,A
8.84633654435802,-0.5745531956974068,0.7882769660069098,A
15.074332474624558,-2.2056214838112767,0.8002724037958271,A
17.162824626287286,-1.0173670632674792,1.2880909374848322,A
17.15756614406408,-2.010535068040731,1.2179546691424445,A
13.218011226844446,-6.255279055351194,0.3465614195204095,A
10.723502546580283,-8.666661644542037,-0.9855239547862777,A
5.899742415173023,-10.552590729395147,0.15125082872057935,A
8.32389421314463,-11.325248346899237,-0.21755394227957625,A
12.250396104609463,-10.611506727122862,0.5120638714030269,A
15.730627393796368,-6.84284795206318,-0.72530128421076,A
19.283513967166257,-4.5264672150601815,-1.1591048378753899,A
18.389092002455122,-1.865162512550583,-2.399817554036795,A
13.12712541418095,-2.7807548565839344,-0.7417802383365142,A
15.028485215326539,-8.705428042998655,-2.29457301681358,A
11.296296942681609,5.921760523952435,-0.3655386421100409,A
4.380380004193423,1.911970189382533,5.4409239179991165,A
2.125676114909741,3.069620627122817,1.5409670237271533,A
1.5178731483779575,3.0907676930170207,3.865411492048236,A
4.769041132291062,3.1965383199654998,7.220631223282702,A
5.08308136962102,3.0007167031300255,11.415666507269608,A
3.0346597687275128,3.7723189810681763,11.362635481798609,A
3.6563809265230534,5.168750436394276,10.17411771556986,A
2.4459242859954586,2.0078267314939544,8.801040147201,A
-0.7820835213560898,4.8403281190027645,5.309419955468414,A
-1.8056878696226388,4.229175220432687,5.187171285741613,A
-3.3170631048759667,3.4458246942792488,9.938735391501673,A
-3.1700857734632577,1.4275396835134,13.921744610949373,A
-3.4545925873044854,0.572515953664483,12.406388129211983,A
-1.566298285738297,3.6596829722183375,7.684736656713489,A
-1.3627108430098471,4.9708460336549365,2.318474307927651,A
1.6690609162397483,1.7358373879776399,2.229577347270141,A
4.407645724540397,-8.062277227563436,-2.3204201670001594,A
5.94777571599393,-8.35704466384222,-6.8983968047255475,A
6.330359956663606,-7.494515328163134,-3.501500276903601,A
9.196268905213124,0.8102013172285946,0.9129397994407964,A
17.14991750065407,5.118004685533727,1.1621582607035006,A
19.617758360786116,-5.0129277499442955,-2.3384294534839842,A
15.216661882013533,-9.126113087006813,2.653487403902553,A
7.854551234634113,-7.0551599456920275,3.1964910156798068,A
9.1358111927234,-2.3369858649804707,6.421586096428287,A
8.05680667820848,-7.759360416877325,4.169523890427258,A
13.12209091398018,-6.790576633341401,2.515977058011278,A
13.856981915546744,-7.118558565849354,1.8016920110423893,A
17.01909669750887,-6.9284774750529365,-0.24700869582504634,A
18.195163958591486,-2.5605840315187125,-1.879467637092219,A
11.658374541403095,-2.1364959177941882,-1.1261308931091552,A
8.4916566942028,-2.283335946057542,-1.4374227204833199,A
6.1491154282664615,-1.9133938304440372,-0.3530206011631605,A
6.19000275021799,0.7175983501309662,-0.5233396742000533,A
5.102590305869898,1.1129755564453154,0.3212932266382835,A
8.024373398511782,-0.09187026252544436,-0.6232657363215982,A
12.453352508821778,-3.0143152712785013,1.816836042444762,A
19.12878759297362,-2.1468567718794467,0.6614037018498072,A
18.186701445719333,-1.1509922774446226,1.6376476463934755,A
14.299003908296118,-4.937851830603935,1.7861031974576989,A
10.157581893190681,-7.569365149984403,1.8686345485055662,A
7.8801670577382765,-5.531697263848407,2.9809723015925726,A
6.5418671045534715,-7.048042025043388,4.7788445777534445,A
10.715270898562219,-6.310945075599851,3.3580318687575734,A
14.752796196674021,-8.083858556451345,2.177514516571113,A
16.573489790737266,-8.056840445040226,0.4139910599517691,A
19.851461635365094,-0.8640354814106861,-1.9008413721650907,A
13.45495293628763,-2.4421022213696086,-0.6389005428294734,A
9.52425262114578,-1.7526357792265448,-1.6941384683207616,A
7.51032079616488,-1.9672685951800872,-0.8647223479349452,A
5.5986506199467305,-0.18437304396469545,-0.30156361215072486,A
6.305866192617305,0.3589414772637033,-0.20632580407945197,A
7.645237108005185,1.6139742912087767,-0.8307261906622453,A
12.40977843821969,-3.14613658041706,1.483030939700029,A
17.03356325625325,-1.1301184003936589,2.150782220848633,A
15.454367966753082,1.3572150400109884,0.8184057355701729,A
15.01441874063524,-2.07325892644567,2.4009876861030803,A
13.240726512920553,-5.183382898529555,0.5087874740497736,A
12.801611807678137,-6.572246131120284,0.896502005086838,A
10.59478872282948,-11.067634574596529,0.000577561316455083,A
11.785610494769118,-15.197537300625653,0.5158761693885346,A
10.17815339064661,-11.86343477791733,0.14275653129450935,A
17.6315385911179,-4.791513083453068,-1.7382978958995439,A
15.927910722852273,-2.1201073784568356,-1.2096460831369589,A
12.462234522903145,-3.5481861360242632,-1.678385041132653,A
13.4174795434606,-4.614283580079105,-1.6004623522980737,A
14.351687629098018,-1.9943585443131715,-1.2893296467559394,A
12.67047640079409,1.8063989705755603,-0.048913832554078836,A
8.904729247704488,7.99174920703511,-0.34955399941307225,A
7.757787719027428,1.0095576519321023,0.49509649896863267,A
13.058794701529326,-2.402523353317833,2.476519492650257,A
14.716178643585184,0.4659530780788084,0.2998430184886581,A
16.22679775286838,-1.1460146752739708,2.066889076346082,A
16.1445625193607,-6.553474759169017,0.7483635357412517,A
13.556802676517279,-10.857302221265023,-0.7622858399250761,A
8.103407096541334,-12.757170759382753,0.5098663054395683,A
8.514712774650594,-9.710232539931615,0.5446646257433826,A
10.590293730200235,-10.730743263166602,-0.06772112183186314,A
14.164839648111837,-7.020091055650788,-1.7327711330207436,A
20.664735212843997,-5.476295439468377,-3.7378785246188673,A
17.963913327964484,-1.3246767764097522,-2.8483965760951064,A
14.331352229704596,-1.8049715318644681,-3.679405611949928,A
11.503937082093081,-4.029769776011718,-2.8492456351433173,A
11.40546985770393,-2.259219005823773,-2.4851796643211284,A
9.454914645810822,1.1179377065567029,-0.8955319705378145,A
7.398649166281529,7.103480575535812,-0.4149299977049415,A
9.44361324919404,1.7702300683311911,-0.20380814276386672,A
19.46161080151556,-7.395013520435511,1.7516275729158057,A
18.735582166014982,0.42147132118417563,0.587003775310017,A
18.535746664251786,-0.13471945430467105,0.5729539464284248,A
14.253980630805746,-7.927040708452839,-3.552181989039676,A
10.661338906092722,-10.14866611670654,-4.657479371452033,A
4.807574173823877,-9.760502380214158,-3.686914871331944,A
5.398215272732269,-10.360058102496893,-2.1111229403125225,A
8.848187206190223,-10.296528770020108,-1.8925263570489634,A
12.587685765999455,-12.871517094362629,-2.2497240819947915,A
18.879394421948305,-6.170325171951035,-4.441994656676541,A
19.763746622193963,-0.1930367784008718,-2.507989942539016,A
15.790079778120166,1.4060359928304724,-1.449708128082375,A
11.221603241877247,-5.26432499525254,-1.694858021439767,A
9.36716426773408,-1.9786040949478156,-1.9356372439122673,A
6.552357040040224,0.8274582275063195,-2.9469168625013538,A
3.616320202947001,2.254094447109975,3.015200967692623,A
8.963661128335742,3.3665894205025633,15.432791751770191,A
9.473717993722927,0.5900927829586661,15.480392280656426,A
5.715249923511502,2.159118747821242,9.51296953850363,A
3.413610142604183,0.15736037648121018,2.8666976177663233,A
2.4050515378475406,3.1034669192094166,3.2635347811545894,A
0.9552017207320573,2.733093014081797,4.318010864543257,A
1.339492091749855,5.0253606846029095,7.3526917434741605,A
1.2534148765071569,4.5345856929362345,8.648299987164366,A
1.8288610810803103,7.930357349188426,11.001025293391974,A
0.5285225869548177,5.723756528310162,11.404137898898874,A
-0.6537185078026009,3.293996075015594,10.558669441949023,A
1.5852738188641111,4.052464314975754,8.385462877523702,A
0.6496004949486014,4.245598599335111,5.728164594221699,A
-2.2663310069107476,5.072290741544113,5.009097440825412,A
-2.456281435897628,6.073798072660597,4.493396964091179,A
1.5726132648171476,6.171063177134404,3.6956854464381985,A
5.312810109853633,4.560376141870144,3.19558468252053,A
8.650381240106084,0.43817027361701566,0.6720300033675507,A
13.854072858338757,-6.670077635502917,0.2815226598291664,A
19.633266823328853,-5.248006864303871,0.38034387432547256,A
19.574753567822704,-2.6437323988829475,-2.4290244682083006,A
18.395474890318376,-5.559030104825167,-0.7982231212803033,A
15.328999826743468,-6.569083996357953,-0.20352324110202474,A
12.804102099953111,-8.605287709651302,1.2800999332870802,A
9.495784480729444,-11.450292607945912,4.140135781318247,A
11.558698763442287,-12.080767926410704,5.726606286170727,A
14.978328841613532,-7.995709810201842,3.3627404877430522,A
15.525143449561018,-7.365810750170954,0.3910328191813068,A
20.373858995238212,-5.345536290631053,-2.494840950036494,A
17.213481781270115,-0.7985714848673111,-3.1239150495922594,A
11.725865842225303,-1.935999975884653,-3.923597310235732,A
9.898129935685999,-5.5054883326837825,-2.7937930009565473,A
9.303260486339894,-1.860906659206874,-1.9524452255860458,A
7.818650615277718,2.498719404305359,-0.8793433239876665,A
5.8993311372844985,9.039092262056855,-0.4450983228802054,A
11.19070846345438,-0.4700123696353717,-1.3534445652800449,A
17.897335351816125,-7.218909682631756,0.3837463136473796,A
18.76678310354028,-0.9222167825187253,-1.7754209133111307,A
19.784904405823756,-1.1036481092828276,-0.30076953215823704,A
15.996958883410512,-8.008978895112326,-0.5959425414811087,A
12.353057037407103,-8.427707817378588,-0.09901935666287799,A
5.760939615994103,-9.05954631836021,0.8268676550184688,A
8.490595466910966,-12.15669341350221,1.7762471028721079,A
14.432179455684517,-11.876425129832564,0.7887882831936432,A
16.606499129842337,-8.592007274178265,-1.5852888481063074,A
20.502084550579976,-3.055088709327981,-2.7224346723790305,A
17.47093058081249,-1.1443257798565072,-1.8007078133166479,A
13.814899605241752,-2.518467467293224,-2.990985182642776,A
10.590397429919355,-3.063481417552516,-1.836994970524784,A
8.557767432084836,0.1292646594311309,-1.4077700535315456,A
5.7793495638757015,4.695307339490665,0.0870812259167773,A
5.084728798411041,5.2798856739598286,-0.753162828381422,A
10.878240529023392,-1.5352970798816086,-0.9157627333292089,A
18.089245488867853,-5.413690477121009,0.13182066640637158,A
19.463726582846306,-0.5301166004147522,-1.3344287663534482,A
17.833990204622324,-1.2728643911283497,-0.24761947500306045,A
14.680246639803872,-8.246060869753864,-2.3163303420478183,A
9.872297775089859,-10.596232399901616,-1.5093469038807843,A
6.365686819444294,-9.724481855562814,1.410036934311267,A
5.352526254155692,-10.747255919710863,1.1433342993354418,A
11.959057444069717,-10.065457421754248,-0.36170034314391275,A
15.261846544776834,-10.892895720947712,0.23217663534636013,A
18.166105099125897,-7.985996146548044,-2.4442679982620366,A
20.754982703423497,-1.7079707957047283,-3.1973078311413725,A
16.417376773017036,-0.039072974085882665,-2.115468139506412,A
10.734398499499996,-2.1208801678095797,-2.609164896448718,A
8.217545785313957,-2.2715820291355175,-1.6653267568796097,A
6.552844940679704,0.28526643139480495,-1.4109489826850652,A
3.9163841198918408,3.757711886838829,-0.07244476013632616,A
7.186884284579962,3.855303108299053,-1.7195865796906418,A
13.916131442434452,-2.4663340513561094,0.36616632240010744,A
19.95738591446111,-5.027060128801059,0.27180937381291237,A
19.466164861029227,2.0404515669145757,-2.693027056477934,A
18.05955518276907,-3.842158790728485,0.5672952253147354,A
11.791872755838227,-8.554602013803734,-1.756984687083194,A
8.72878185677819,-8.549265109049772,-1.2184851854283336,A
4.590534148978122,-7.647335333224465,-0.10199588512475888,A
6.612904267290081,-12.373413409600445,0.47142340220857143,A
16.958645446448955,-13.991074751671015,0.06096252912959822,A
16.930714966226642,-8.006342851466988,-0.934932294959403,A
19.32377805789444,-2.629339023259989,-1.9247634976203483,A
17.93999569281929,-0.9935167814154616,-1.6696215758851076,A
12.793843930101994,-0.89376192631694,-2.8210422061759552,A
9.932183537640737,-2.6024574403328877,-3.4214625537885115,A
8.72254445592858,-2.521211436932107,-2.6599088987748027,A
10.447339999154503,-0.4694693218476414,-1.9543543588893568,A
7.339409520799072,6.004076807694964,-0.1382809944730031,A
8.43284240320379,3.619677833434294,-0.3548023746898611,A
17.66718294746832,-5.413356021453462,0.9369272229578238,A
18.887428492102117,-1.4052592434494162,-1.0102196079755665,A
16.2810771081473,-0.5823437857857178,0.14513336104206156,A
14.534731320508744,-7.313770653461697,-0.5444339897097724,A
10.317094380146525,-10.00462799664728,-2.6478303722903966,A
8.05126006692449,-9.086799893208513,1.576666548924834,A
6.055992876601753,-9.584526507618017,2.6338128999147803,A
12.049839267874429,-8.878836827358798,1.2591008092155132,A
15.497495689882966,-8.335782337876479,0.7226430762653562,A
16.252713990105793,-7.034234950638321,-0.7909669784039653,A
19.19551468100074,-3.1122633731015608,-2.8188025071157448,A
14.971369290401274,-0.6564935868479506,-2.2803150507349517,A
10.44678845115302,-1.4782379808572255,-2.888016713833054,A
9.552519907341441,-3.39383568758114,-1.9332049140955423,A
10.003091804012278,-2.678527994359124,-1.1968203663300234,A
9.400083797097784,1.191130189528137,-0.23957039559303134,A
7.0957119929626025,6.054013209948309,2.6870135351721594,A
11.629159572314846,-1.5896812754793466,5.4496180710591595,A
17.38371887755962,1.4587684527679092,5.367603954470919,A
18.75978753908132,-1.2738399499792727,2.6080578487299553,A
16.033847629799954,-7.166814404271729,0.9043620629018673,A
11.585505597811656,-11.396316103659089,-3.1446203568539177,A
4.6331643944579,-14.218867341486874,-5.943044203473365,A
0.7470889587009855,-11.437199628847788,-6.604388528802492,A
4.736732512794741,-9.06092853612469,-8.229368208518116,A
11.039826668532408,-12.15518940529833,-11.017162965566085,A
17.402960388463338,-11.870440280284129,-14.532451875422943,A
20.688558060855744,-9.706746165538208,-14.872370702835406,A
18.38752355281632,-11.198698462174093,-17.91682425088992,A
21.41723182249831,-10.815200351998213,-14.372643171619686,A
-15.801799496614315,-0.09273045831230853,-14.435762809649445,A
-2.547802277922255,4.555559730047022,7.733793971505254,A
8.96743835212943,-1.24014983227966,2.8930180961212564,A
7.18785789017679,3.227403096935289,-0.9525278431853721,A
18.88536889061292,-6.453015340274529,-4.252105794276541,A
19.296038779321695,-8.639330447838354,-4.563237565765994,A
19.903589338157392,-0.6548235429946766,-2.9260492704287366,A
19.1726465931761,-7.236221312580328,-4.528133956095383,A
11.854353123161353,-13.743635135825,-5.74387201951389,A
5.491102763684954,-8.669241532241932,4.3704856002840184,A
4.355135500462482,-11.215383571045216,3.9409384465920647,A
7.98897898926755,-13.856299895260003,2.45349443908513,A
13.977692770414336,-15.192891750080562,-0.04992778881662185,A
14.945762986519496,-11.699200737649877,-2.42229498973931,A
20.157688281698867,-12.89753260494082,-15.538006546280952,A
19.524365363389954,-3.8939659832473197,-18.18381061692441,A
19.37864319616291,-10.304798369608765,-20.53912765367062,A
20.54518033534909,4.2794942061382555,-2.808689922416656,A
14.004680498759217,11.99912631264139,2.663020820758923,A
3.506675482932866,-3.1407897054251404,4.834795877366864,A
8.87383676436281,3.4701060910813446,1.8699539622763686,A
16.052727225404663,-10.029036553428577,-6.529372155702319,A
20.614295927691487,-6.173628599654703,-3.5398100515005986,A
18.847436494757925,-2.537441279710595,-6.072980817688638,A
20.163450420889095,-6.689079832752022,-5.151151690683721,A
12.648852184085394,-11.221277351447018,-6.76134720202432,A
7.71992715633866,-9.07217318603132,-5.252522876913593,A
1.3527293400542586,-12.466245782387439,-3.8751805097112175,A
6.962575000228104,-11.283932374048614,-3.12372168785094,A
15.569323566973095,-13.380779179647005,-1.9800925527964637,A
17.254886450673165,-7.273105518670256,-3.5967723841332195,A
20.131448411613157,-2.8408969296032645,-5.376694281023779,A
19.293623696793684,-1.7148616198374775,-4.771602610048158,A
13.916615970561313,2.200765352373374,-4.1879665324057855,A
8.946855393852724,2.1268969593212472,-0.08484499765584054,A
7.224740775482745,0.12962620668010652,2.325919175763772,A
5.275666654754842,4.025709552700628,4.957918576691483,A
5.192802164484431,2.8142348806111994,7.626755885765853,A
5.442640848256913,1.7606658595327211,8.681373036055609,A
4.9487388507199785,2.0346843737412588,8.399672109312002,A
3.606288988738177,1.9285238279985326,7.245827386220897,A
1.6687688075607694,2.1396915475002576,6.5314913648278194,A
1.2810575002386693,2.8726293069619784,7.993319785188269,A
1.041355686748957,2.6209932807540124,8.802106724243378,A
1.2915391414626782,2.846378099299974,10.870305781832942,A
-0.060940873046802436,-1.0087230772717983,14.662299910671777,A
4.045056698703032,-6.085479532423721,16.51211642922238,A
4.183189601126667,0.6474665819180336,10.98749113983561,A
1.4309812582360757,2.294447801469409,6.275010945768728,A
-0.23114122781850802,2.985129387410086,3.7974745635241414,A
-0.32132697538544663,5.300325707390623,2.2712984018027074,A
3.370651824635301,0.02904365051500664,0.941975872619954,A
6.081213418593926,-0.7211073412574439,-0.8009043671874965,A
13.967321791458573,-5.712625979280249,0.28400127609653136,A
19.574904326577187,-6.416127925811319,2.521578521896477,A
17.10278027207329,-2.248218523089544,0.10536473318309135,A
19.17066645144287,-6.5942469939535115,2.0091437222116038,A
13.171629236370942,-8.343270726495087,0.7201973026145626,A
10.906121901149284,-6.986472958568877,1.5153551959658216,A
8.925782853258237,-4.962976839346621,2.070391704919572,A
9.893011817311278,-7.552697837645685,2.362257650744167,A
15.93570393433731,-10.01805851194934,2.276131849998205,A
14.620951172908427,-9.794560804412079,1.0964212022621274,A
19.79650151927655,-3.3554940647970812,-0.9085300547099795,A
15.153928122746187,-2.239635827754734,-0.9350246228528523,A
10.504941173074476,-0.9512461974204474,-2.7228936403235795,A
6.690275844086056,-1.9834714992558276,-2.4642792663884663,A
6.522626788070205,-1.5485581944488762,-1.2972997418135745,A
6.950642532966097,-1.1213352256435345,-1.2133167600728807,A
8.670021252683691,1.7112381750120864,-2.036807941343178,A
11.222181610157293,-0.8613576217654164,0.09069056029291658,A
15.52709749997751,-2.5349499018998074,1.4255811259045272,A
15.411248651925607,1.3633106189800914,-1.0732689865415943,A
15.195834673249141,-1.518372356160112,1.4326508398454332,A
13.413908007302375,-7.150599022877106,1.32921690109567,A
10.200869969360015,-7.492001703190548,0.8025853961030411,A
8.759748390405193,-8.053694240677338,2.210625216667489,A
9.62252471429134,-8.723345617151338,1.581702155828932,A
14.402324020305176,-7.588979817057051,0.7403334465647315,A
15.320738215815226,-6.347330794669277,0.40214806341123044,A
18.214997587795633,-1.9977080604892554,-1.7630421736810118,A
17.30298530745045,-1.708862690888358,-1.9501132598755957,A
13.71718642562591,-1.5857186034602233,-2.4775272852641557,A
8.901635650876702,-2.185107428542918,-2.693955026977793,A
8.170462977075227,-2.4843859084753865,-1.813719986382882,A
7.886301188891359,-0.8745631361418982,-1.450624924575286,A
8.597083472996339,1.9738107150540267,-0.752473843096268,A
10.353617758508372,3.643736408738019,-2.6008225153417985,A
15.045742012448072,-2.077704835867917,0.9593470885767301,A
17.336566956982008,-0.4727354968533676,-0.15725252532700051,A
17.550293108638158,0.6674103322781664,-1.6355328627784758,A
15.549345108782157,-4.6699560887287275,3.8279311301126437,A
10.35571554381042,-6.467607007354044,2.583930191907515,A
7.456437558555661,-5.222286251664513,3.585604338893056,A
5.80220314767862,-5.708781600648316,2.3431601694920863,A
11.740709759898923,-7.644829907892827,1.4363917253687575,A
19.35077456777653,-8.795803395454035,1.9721409229600735,A
19.61033732718168,-1.7324734305076366,-0.7767261769355065,A
19.427363707160353,2.072192852981629,-3.143339203065434,A
13.798272899943122,-2.17368336770512,-1.6779207556558842,A
8.085120991863507,-2.5177234262968367,-2.5862946201448715,A
7.661745096395762,-2.131511967140423,-2.088545305310965,A
8.099343940764465,1.0211100261817847,-1.2529932677625444,A
7.5284482323038135,3.711508285933334,-1.9569740140849903,A
10.944816003627587,2.578432144690271,-3.5390978645388547,A
17.860500786808686,-4.518888561698238,1.3958467536357126,A
19.469582897525235,-1.1373713681651945,-1.6775668260142442,A
17.837542520177745,1.2402482545814726,0.5963333852484344,A
14.107375917843465,-5.00907717466773,2.4026842958066448,A
9.161749348252666,-7.696827430700994,-0.01505418795307412,A
7.1907144188750225,-5.916872244993472,1.0911380552986194,A
6.521065143285348,-7.976306667772277,1.1210144785344387,A
13.069232884975328,-10.421826658968648,2.0372816294508675,A
19.196682179250292,-6.974115732248096,-0.14107012509384845,A
19.77910767671704,0.5960575810762108,-2.3927640977973006,A
17.496196698302608,0.8308509253537132,-2.5791984354921365,A
11.791660114148476,-3.7519770250722027,-1.9993223394770405,A
9.692672975895533,-3.124244349241467,-2.557855985155788,A
7.1968586002237664,0.09964213582422826,-1.6155168451310669,A
6.320134947624819,2.05882795962731,-0.22511119501047183,A
5.838795912770133,2.4270169833538056,-0.48708579669561625,A
8.855819468999059,1.482346225701811,-1.7940835577669738,A
15.415501431927197,-3.6471231353725635,0.3809080926315984,A
19.821721442621538,-4.445150882583092,-0.481928591686574,A
18.197911111257106,-0.5908244205157045,1.6131720929900302,A
13.916484070589371,-4.313917957172921,1.9379828293842327,A
9.174047948033701,-8.570941393492765,0.5570123426779706,A
7.398154762967446,-8.390571397901459,2.6142926649190197,A
5.548211380981398,-8.89501986818528,2.9670057902247327,A
12.719327857441252,-9.075389342235985,2.5207086023037797,A
20.359929923582595,-8.910887238204763,1.1843864941750701,A
19.24934521654225,-4.883864685284611,-2.276147093103007,A
19.674557446868988,-0.6489900113733582,-2.2922495354637706,A
13.713836364745319,-2.253476949727902,-1.779292928402615,A
10.775001120954306,-3.0237034767328184,-2.2985295382580024,A
8.961139051287146,-0.8805450965882102,-1.6614967586699152,A
6.41985158710689,1.6870386299847437,-0.3141678159948116,A
5.360545479468044,2.9483347139888756,0.4662357584253168,A
5.809641868405808,3.4899710035054525,-0.12655172016954291,A
13.081427347903693,-1.3787478952474468,0.5486148152743361,A
19.76510138409747,-3.1706122172664988,1.2405122310715977,A
19.376273063362223,-0.31699134730547995,1.6722413505986253,A
18.183931041866128,-3.231806534713802,0.4494107787452178,A
13.151247953582283,-9.613805800965771,-2.317206191222064,A
7.767993058000197,-10.86422546439617,-1.3024529882053668,A
3.612076623145816,-10.922539402048999,0.11667697421793558,A
9.943826704885481,-10.573428748970805,-0.7939810032449192,A
13.04066549493134,-11.37454356085172,-1.185299337837549,A
14.903990253552832,-8.50365885826751,-1.6023933254134797,A
20.381149361004788,-3.390198345940176,-3.4982761707294503,A
17.65060282971501,0.2855626729549196,-1.6638388997725135,A
12.612369051165475,-0.15589083017694724,-2.799677576166535,A
9.136748859994812,-2.3670572951940376,-2.204781884522442,A
8.235358176839311,-1.2902718905193422,-1.1233506828943598,A
6.645123442892045,1.4088882903577007,-0.532106928758762,A
6.184883662723781,4.5697688947172415,0.3654188083745377,A
9.973954551857558,1.2827390627420048,0.37019204642491965,A
17.884559319279074,-3.904083286801619,1.6720731831402906,A
19.704250817670754,-0.3936073155891129,0.7978540167858543,A
18.12511186809634,-1.1548813423076474,-0.1835990503310671,A
14.12286775899982,-7.235330733914684,-2.242847870059602,A
9.791668593387712,-10.884815847700812,-3.5136005704889612,A
4.804927052702503,-12.545402672358536,-0.5361669946461597,A
5.574518268878328,-10.429934623656129,0.5407041798712746,A
14.66883081146532,-8.14282988330755,-1.2101704394700405,A
15.575302419963405,-9.083493813136513,-0.7567488890169014,A
18.684376559062,-4.73606969383541,-2.0660654089645645,A
19.37119126248719,-2.0959443032433387,-2.216884048383772,A
14.044158309802292,0.09659965181256235,-1.5996967946371616,A
9.622275391453872,-0.97897162444668,-2.1197145295534776,A
7.302358576851766,-1.445623080610754,-1.2710483344424883,A
6.666307249181337,0.6196057790922129,-0.9064817329369168,A
5.582616134347784,3.8679560824077606,-0.15330916648362128,A
9.651306846963958,1.6235538845392488,-1.8422781487379727,A
15.199804850911438,-5.530201004553165,2.300170850150804,A
20.031205739122257,-1.6397151319328505,-0.5466604766548855,A
15.862377812361927,1.4661819259317967,-0.6257965534467651,A
13.725619424292436,-4.465824629763393,-0.1774804282794345,A
10.770118745134413,-8.512943518040982,-3.5752993933980544,A
7.476405740775784,-7.373900101756099,-1.851268214089541,A
4.957045922245502,-10.60960247051582,0.5553874452199515,A
9.413668546711504,-10.656372890758945,0.687972081986281,A
14.089911183477103,-8.239428287437049,0.4368045968164954,A
13.40716869308034,-7.091595097332426,0.48718943827273087,A
18.436546613185776,-2.8496684765677696,-1.319438380256007,A
13.248838944861294,-1.9218911851740186,-0.4574824858024036,A
11.188890074758453,-1.4787078282311543,-1.9337024224749837,A
10.331354328938831,-2.603091079912394,-1.3809934513559856,A
10.768221079303196,-1.2477390268004465,-1.3218493899759292,A
9.976040240112646,1.0531650903998642,-0.5684431948810028,A
8.363209766324868,6.0093599600638345,-1.0221365794232233,A
10.129679467152192,-2.2828872756134064,1.4306871167463546,A
14.971977064086154,-3.1017434374127943,1.8599549293418023,A
14.659546554507324,0.8512178063563562,0.13305234029899882,A
13.58983806397039,-1.5223121218288787,2.1531924276830803,A
11.727159658948862,-6.844699976792334,0.3365613430386394,A
10.42721892451367,-8.55928022559601,0.014220952829772022,A
6.544318736536252,-9.07882804498507,1.607065184882818,A
12.779250391955024,-10.797551474145507,0.23439110608245806,A
14.427697183597132,-9.510657275928114,-0.7206319633987642,A
15.706169322565575,-4.326610948731375,-0.8760968138946037,A
17.49099636522349,-2.806750373461268,-1.2326781666701152,A
13.020297341971247,-1.0229621534132556,-1.941476217880652,A
11.18990212861194,-1.5801227687556398,-2.139210490088788,A
8.585899975545278,-2.3297151180977367,-1.518485360382777,A
9.953163965966024,-2.027610683200837,-1.0624210157150766,A
10.551165643589371,1.1601467220301918,-0.5447151081922491,A
11.108449504023795,2.98384518327953,0.1341286401375232,A
11.253548558258354,-1.4622153386911294,2.2407109728006933,A
12.128000573293072,-0.8081257977714487,1.8995054421488715,A
12.054369770197589,-0.13544356348853745,0.4669805467272742,A
13.409012716668165,-3.282050820225658,0.8700134173744836,A
12.4618038519549,-7.409865161813819,-0.8904116575185272,A
9.813881676012226,-10.65125746015464,0.19792635819107363,A
7.821479621877028,-10.528985693429332,1.6846621625034528,A
16.665240680104947,-8.481480732918412,2.317647407519956,A
13.385520540110972,-5.898214097381037,0.3917016882341029,A
16.939414632009797,-2.8262354014770863,-1.002062769500839,A
15.435139952503878,-2.009960405966839,-1.385414489528447,A
11.894543684377776,-2.452858074154956,-1.8895568419891142,A
10.168215662686636,-3.008216766718063,-2.0105488190784064,A
9.587313330601068,-1.0447825564041202,-1.5372899593142568,A
9.283521513922194,1.2113698757639686,-0.21171579202975793,A
8.112766331182097,5.534403064546304,-0.36460677598145597,A
10.934380961360107,0.9110725217155585,-0.6797645835858797,A
14.581729818921255,-3.519399963417736,2.4494030889937335,A
16.85744730447433,0.8421135558122906,0.0834707979176445,A
16.883605067869947,-1.6681561434646608,0.8516570727229253,A
13.819538070596465,-7.59593307353227,-0.07878929179468491,A
9.560203220652154,-9.60429496580835,-1.2779496754852095,A
5.903333063242137,-9.315237052381248,0.02266666733920654,A
12.114464011885685,-12.625403385164562,-0.014420670197990341,A
14.320794834861045,-10.5147572314372,-1.1730398587159168,A
16.924585295558437,-4.098343613801685,-1.5120113452670148,A
20.441596013896216,-2.9560627790946166,-1.8156728454010231,A
17.18800756239406,-0.6024977354611867,-2.555488051878939,A
13.313096819700494,-1.3843000851379772,-3.4440759015029507,A
10.703412460027058,-2.9800662667547755,-2.558981661514,A
9.30560087924581,-0.9428343756452793,-1.8973177481295485,A
6.602411866389537,1.7298406952218248,-0.7938511426188783,A
6.484573724890341,4.0578942887627445,-0.08278875148991409,A
10.256506639143332,0.8488100533546107,0.678224505542071,A
17.2955259475548,-1.6993016578715192,2.3023449669091085,A
19.36728044408272,0.36175352842557496,0.7366192286283376,A
19.7387241700789,-1.0758728402359723,0.05410607859502258,A
15.563969544470138,-10.524306560432542,-2.064964169686286,A
8.389745979491634,-11.600092916511125,-2.834520495951195,A
4.868515335516483,-9.269253692308217,0.11063377041923844,A
6.290609230088702,-7.964412084222234,0.4682666944646903,A
16.12280540301681,-10.312825882051357,1.5545578920531276,A
19.325920259587864,-8.115811431659928,0.9881866680905612,A
19.793196795836803,2.862096203028371,-2.796610992861819,A
15.709470723299518,1.2707462173587694,-0.1196669356843768,A
9.192746306061371,-1.887956625303498,-0.9241824602795407,A
6.393171896361213,-2.050767026804897,-1.8618177687059962,A
5.555328440924713,-0.11734852119043429,-1.1009543471534768,A
6.170428321899088,0.9118174505498247,-0.7773700192129483,A
6.5315090308333765,2.4811800988838453,-1.4106734213276164,A
9.866599305025504,0.29082821028473527,-1.0700402101609952,A
16.957214250773916,-5.453693811621367,1.3086867437359253,A
19.462487068832935,-0.6317541665740978,0.2006506949137588,A
17.265658305609836,0.7292213422831059,2.0682736477606527,A
13.555188429182278,-7.062869745992517,2.454675923801098,A
10.061191627142463,-8.245682982155081,0.8798328559572971,A
7.480936992821731,-7.835652152669002,2.5327777727916696,A
8.78357992263796,-9.367275828015355,2.2451148347304697,A
17.300370956548004,-8.897449970861912,1.9433467830285474,A
18.762171092171577,-7.053622190608448,3.786068917631347,A
20.154164324083073,0.1517682026358247,-1.397473207145073,A
16.35962951300042,-1.9149561277773348,-2.051743556659092,A
9.06899702260113,0.07717362171100323,-1.2591879236717491,A
6.728122211920422,2.42440938728311,-1.6092763499301495,A
4.444502469259279,0.36849890055899565,-0.8338607101881209,A
5.932091109824711,-0.5454109103812331,-0.05453908001399921,A
5.952977382806159,-0.42211729843222817,-0.08745618858882863,A
7.274298921320696,1.179837683862109,-0.3026643583930141,A
11.998636479154433,-1.4028168499216624,1.2191007076342388,A
19.87682320607494,-5.250555937045938,3.5371517496323706,A
16.542027634311463,-1.8775942740504332,4.371946657243618,A
11.810318754731824,-0.9393480844834576,4.059060937650828,A
10.349780190919065,-7.076996085538468,4.557757757481326,A
8.720968123424006,-10.125281324315566,4.135003685740644,A
8.503109506662884,-7.90690096739285,4.312862806459292,A
9.984510520171481,-3.0413999168073587,1.7884019569039236,A
14.342448185313268,-3.808090257890812,-0.3065584804415478,A
13.006581051928586,-9.930330781817641,-0.8431055438639533,A
18.404548558675938,-7.4207854656856505,-3.4279165449913176,A
17.97637925909202,-0.37568757943545245,-3.5800421417494785,A
11.673774882824528,-0.19842253204712335,-1.6715703813243452,A
8.166666364476908,-2.2407522161389783,-1.794832227008772,A
7.538815318965177,-2.165177843627296,-0.41069961773483077,A
6.915364320480927,0.5153716005299435,-0.27505793248508004,A
7.040478036887667,3.5829687253669174,1.4032682577737585,A
9.720661198648708,4.686234800516959,-1.4990207512263205,A
17.10183921191338,-4.313204321678927,-0.3093157719054733,A
20.214288252610977,-3.7231677343067378,-1.0903840420063726,A
17.68077968558184,-0.9205704471974019,-1.3947436986825659,A
14.276728156566202,-5.378906474456905,-1.0696395062857769,A
9.646129204880664,-10.74329396125517,-2.219721506698952,A
5.655204616528751,-9.410817679339182,0.19435668067401138,A
6.150629627424684,-9.75584665677272,3.926001296507364,A
13.72836403279122,-11.989359087482653,5.059250072654416,A
20.721240840248015,-11.627420258914945,4.784104468375195,A
18.772593898939913,2.410159936901103,-0.6739737817465347,A
20.66827040506885,-1.3058741097327802,0.9141426026077261,A
16.80908933471764,-4.168264581564087,-7.7278339990619305,A
6.861156186563086,2.342583499182182,-4.840819302176403,A
2.5493420564683076,3.4400292097206795,-1.6779584789890802,A
1.7921777624924677,6.252330611043556,2.152823069426714,A
4.397077732186978,7.445777537963238,4.860313981347852,A
5.037733769597248,5.709645061673458,6.309152330186752,A
7.436080247610467,4.616113153224029,8.356908003197372,A
4.956947941948542,6.052077541060893,6.418745531697223,A
1.9524002741739364,5.798280599570114,5.011271390554179,A
0.8714428576116392,6.034795865501519,5.814759203918406,A
1.2844536005647909,5.930864669673378,5.292565533059296,A
1.3114666210927979,5.401145631613563,5.992122581842818,A
0.6510240653983779,7.9409046352010595,8.151102561280226,A
-0.9762773053492245,7.5016095460129755,10.823141892498244,A
-2.8804056655564936,1.915298422707878,12.644683931744073,A
0.8051867391281627,0.515180955964332,12.613426913388302,A
2.068881492076826,2.569406944958975,9.194232853014254,A
1.6668371293615376,5.30959167065585,5.593399158236118,A
1.4218221787966843,6.7128633315454,3.972179169734836,A
0.8257735975643483,8.204681411964122,1.852125606234041,A
3.6450073176578623,4.138589118676236,0.7831750542212967,A
8.53264745456406,-2.4291026110492844,-1.3429080610849782,A
11.802531534141536,-6.1494171906183706,-2.8690868549752615,A
15.775673784776073,-6.29229551847873,0.9961502149523966,A
19.596057912930124,0.48631580170036504,-1.443222653781819,A
19.92982925080653,-3.303972397048602,-3.244598577347297,A
16.859041357764237,-10.595597143732745,0.5079794268677778,A
10.793312173632014,-10.605766380043361,3.008678623926672,A
8.90314577974164,-8.220262687323318,6.946175346383916,A
10.166035100342425,-7.0190086537819525,7.597689155889554,A
12.754004667985415,-4.995246470429733,2.9610650951655075,A
15.090785559685484,-5.935065897321466,0.9183420022378486,A
16.028594172758716,-6.756852678703382,0.9587198796471187,A
17.07198153188145,-4.522391130579719,-1.4011810768717359,A
19.71281416301802,-11.908067609472104,-7.499005276267718,A
15.663757629104357,3.196560088902781,-2.880007611633489,A
10.89117302918041,0.8894446905696066,1.3131085070885593,A
8.852295478205518,2.8719549925216477,0.2691083148827487,A
4.959252680162704,6.8338762153351515,2.2095230902218383,A
4.0179663550684594,6.931426787251181,3.033100412176153,A
6.962879816097537,4.502780479915656,6.898574974979858,A
5.925098190748187,4.754852711912231,5.934362267165914,A
5.219380941853858,4.666012164040249,6.200480783265942,A
2.8036896963084157,5.098556504949215,5.184992927244538,A
2.9166845663785,5.028443442343367,4.417484098383162,A
2.856269011245752,4.520834517065549,3.199871279455517,A
1.9454481509532162,-0.10882415169697793,0.91776554237145,A
1.4499453892653404,-0.5495694628867692,0.7179570845887411,A
9.034521707188267,-11.039244072365562,4.17094360217436,A
17.1592806372135,-11.977109996763865,8.424802399953519,A
18.04256975879756,-8.212997330885903,7.298383791757917,A
12.758041561416432,-6.567702438024674,4.762697708660144,A
8.378883062746755,-2.6186658180047764,4.786570786284845,A
5.817013736961236,-1.070494458719695,3.209327795871614,A
6.753324913086434,-0.27717668704779513,1.9927001351274019,A
8.291723372865091,0.2271080363162321,1.0960918050377302,A
14.182395719727745,-0.08004496232304888,-1.619183973000472,A
14.633196552236758,-3.816278157499218,-2.1115703154428944,A
14.24315267458546,-5.404747848423579,-0.8739297292051463,A
12.567626258871329,-1.840149032278832,-2.0186807742214508,A
10.551352825350978,-5.118549467818962,2.34297119860081,A
8.338613141518811,-5.082617804737256,5.291899910639497,A
5.771014848131443,-4.554772313521929,4.60500076389811,A
8.153640762705782,-5.614543502416817,5.121778185894925,A
8.201221070032995,-7.398941590667142,4.141190056624044,A
8.052323797189242,-7.924641906178081,1.4934785707857858,A
9.028570225526064,-6.860048979962298,-0.633341946958907,A
9.24182021588507,-9.284257988123501,-1.071309827607113,A
13.002547304887802,-8.367940427494469,-3.726945597118882,A
17.971614382563057,-5.552942671042429,-5.440787049335805,A
16.671337315347706,-4.4626855897087365,-5.548243784003716,A
16.19612296352563,-3.054885904963716,-6.053507012036608,A
15.106941507114412,-2.8516819804417954,-3.3883610640889894,A
13.686361448871095,0.16221124178026586,-1.8047785989643916,A
12.126816018338197,3.6287655948241375,1.6445986543401518,A
11.20568844751461,6.318441328183737,2.389979222123586,A
12.370874124937554,0.8114784398452758,3.612141688342293,A
15.048864533660396,1.1017826172751348,1.316773664752291,A
18.72864521890187,1.1611556346429683,-3.8192437699772466,A
19.878529440712313,-5.037063416092366,-5.674594231481766,A
14.144894702390431,-11.512047088823948,-5.145504830958733,A
9.212719443516205,-11.350767700544218,-4.490702655922888,A
5.30278366227188,-9.002827942247569,0.35718070633399585,A
5.033188126998838,-9.150985461828746,1.4878249294005967,A
5.098742967676205,-10.810657196172194,0.33830345312283483,A
8.140951446144603,-8.542008088674018,0.41913889735003096,A
11.056105555368994,-8.470661757299869,0.0747263951348781,A
13.540415589194309,-10.245426656249396,-2.2165133649312003,A
17.393796794858694,-4.912598048804252,-3.928123658745279,A
15.317176465904206,-2.94625110360542,-2.4748829757566773,A
14.060083328440479,-4.6358261564803485,-3.9529866169237327,A
13.224263156438912,-2.5587485223518995,-4.3790761030487,A
11.929913037642947,-2.1654166041024734,-3.179402982247614,A
12.299632074947324,-2.771876343522729,-1.8110940596112135,A
14.976502830716917,-2.985844120679989,0.06338800391863912,A
14.98218479765688,2.6917772069893076,1.1931331713973448,A
11.273683852473566,6.57429352519371,4.945421005845191,A
10.824312874988816,3.4355383311584298,3.560334569962337,A
11.502587876565183,-0.3007827782125425,4.463431067407955,A
10.19950571928618,0.934303035624194,3.1834656796174974,A
10.64805513376209,-4.063490502762117,-0.6270339355713384,A
15.114114062554286,-14.192702349915962,4.5476561265503,A
12.725610248527573,-4.7935235671173695,1.3125138034469617,A
10.1271980115133,-4.946523825290635,2.8015935070204474,A
9.333105671252996,-7.4331612633327495,0.19635673978468762,A
11.643626973864995,-9.463874639482405,-1.4123999072405762,A
11.124281970705525,-7.77176031528197,-1.5924951134607452,A
16.341287733106142,-7.073489162074963,-3.2026200094307073,A
17.570737050520258,-5.088861331358565,-4.603496945294119,A
15.294508784134027,-0.8219025907577802,-3.03236406775059,A
11.481866319955936,-2.425276707742311,-3.2865095009586955,A
10.867469240963779,-3.6337232546336566,-2.173512131720673,A
9.966469072123392,-2.2574067435166305,-2.2894424205525854,A
9.207169581292566,-0.9233567454405082,-0.00460137966930232,A
7.998858753428404,2.1827031057196717,1.466685292086944,A
9.38694935736931,2.119392495943031,3.1886950148798263,A
13.445123497205564,0.34259018528600804,1.392205039452965,A
14.028385489068624,-1.3739358375883732,2.2747043749195774,A
11.645303246421204,-2.6881483231887287,5.7712678948670355,A
12.931248844410632,-3.499002547458357,5.978928827566184,A
12.439808828667235,-6.236136276059606,5.447580386969796,A
10.717991469755248,-7.4686458814781,3.972406446199038,A
8.34597191616705,-7.037681752973498,-0.7447857403221911,A
12.009349204924243,-7.154441346042805,-2.7813460374292376,A
15.604342350844139,-10.455818902420928,-3.906768359100523,A
19.34490237661693,-7.666954711623679,-6.10305765800992,A
19.17893004592398,-3.4424878895532367,-4.650173642885109,A
15.732473936020426,-1.1192334917905373,-3.0199350648388563,A
11.906459624750198,-2.2268598288674166,-2.1552416903500724,A
11.015428037027563,-1.522568731024383,-1.0389694876097066,A
8.61531136693842,1.9130287607515415,0.7902220962637495,A
7.013517876935207,5.624310700719902,2.277979300820069,A
9.448210853666373,2.956572628733704,1.884205227079698,A
15.912365462109356,0.37655204589231916,0.34686528299065406,A
19.74797300846629,-3.108264868976212,-2.109559261917769,A
19.131110551070176,-3.6579672221187334,-1.5602407053258478,A
15.085990844098099,-9.296734084030357,-0.7824798236610776,A
9.019866319500615,-10.27863678062139,-0.34316853620683224,A
6.988052429427569,-8.190856592353896,1.4418297321659552,A
6.522074327831433,-8.1387788320195,1.730455551701919,A
10.15317979176741,-8.524320961920258,0.7386697523156296,A
16.26056321040807,-7.8602605620552985,0.8395798760040467,A
19.625081752388837,-5.702771718763556,-2.6314878753064606,A
19.3001378726756,-1.6292067818592018,-2.192823727707929,A
14.116639173597825,-1.365381717389776,-2.0735629312388264,A
11.873875235873742,-2.0664338465653085,-2.016767132973727,A
11.696682899827117,-2.886239497926339,-2.0495756109823264,A
9.814804016181998,1.5467834698315766,-0.25149031313259873,A
6.148807379110033,3.158466349222916,-0.780547254548191,A
5.290523309361633,4.761196877710793,1.3572178832469224,A
16.509770883839966,-12.458278450830885,-7.285590112930399,A
12.434827195680642,-19.437489445287202,-7.990764344425964,A
5.397289317949236,-9.197572249325935,-1.371352191724224,A
4.0198666981109765,-8.126910314507414,-0.45544368659113665,A
0.006046999733451927,-10.135560483213254,-1.3661429265582095,A
1.3002884058443254,-12.506754351391592,2.2717550887773177,A
3.996312203260432,-4.586355139432231,4.377278942695313,A
7.990515048091744,-1.6394652413571724,1.6876374885757917,A
9.23502644769437,-6.424719101558546,5.0333216406070305,A
8.022626297275732,-8.26675384133596,4.948552552543291,A
9.973692375986033,-15.43744968416869,-1.0888963673361012,A
10.396372012001152,-13.107715191942601,-2.7937962890204395,A
9.452091077906706,-6.164941357463429,-0.009867307781667292,A
7.768472834584616,-3.44152881015091,-0.4049167641227694,A
8.612681551654855,-0.859318878270382,0.9722801187542567,A
9.838915791032374,-2.095639511681083,0.10040239173797215,A
13.029082428381528,-0.935507294560443,-1.9098248207920923,A
12.585023475433722,-2.3637937203411097,1.130117001692599,A
13.442676913629635,-1.4246909166306772,0.7298607094667859,A
11.829190137115592,0.40362679949696423,-0.8515311733217903,A
8.761817633415315,-1.1973569035604559,-0.5044732706788334,A
8.295539944342542,-4.3714586623270755,0.14085552523884726,A
7.611077350172497,-6.160088621465867,0.17308439185902758,A
8.659698215703811,-6.579991800290265,1.3156159694006901,A
10.22365147528923,-8.388643122518246,1.1504348394420556,A
14.501297636358442,-10.67537419229361,0.00590619246639729,A
11.029669232283759,-8.327606534134743,-0.20626421563672445,A
16.444527743855208,-5.248770634559701,-0.49268229301090294,A
16.363651836483896,-1.7498241818630267,-0.4933954583958679,A
10.172711100271167,-1.7727871114766374,-1.4291822438128516,A
9.279314389100707,-2.526419242855649,-1.315252882164737,A
7.72441345315651,-1.8140458272260866,-0.7889704430959219,A
7.3714719054368345,0.10782886174257791,-0.15205821685479234,A
7.332024031951352,0.8982032490306955,0.6973473314966208,A
10.984845265451185,1.5547730167356848,0.32483967440177125,A
14.369669325754025,-3.3732357609202026,1.6538936353669322,A
18.111482235155684,-2.3341291081836815,1.9550214934519268,A
12.821649193773723,-0.03484116943912488,-0.06885368425889363,A
10.527327151422716,-3.6035071630995774,0.015412183973828666,A
8.128996070514026,-7.338866734559257,-1.0107267907370607,A
7.094715618207468,-7.525428341564153,-1.2198775469693306,A
6.410260248948973,-8.82839099690146,-0.09116080375898541,A
9.8843661012368,-7.256559394769102,0.7186723040361349,A
15.73497653132308,-7.096985553556753,1.8429249023989014,A
18.801004568706585,-4.952038978936738,1.2861267285926612,A
19.434733503324118,0.723857908014508,0.07051541909235344,A
14.660662669242939,0.09909720386926957,0.47578947440592645,A
8.456262376868963,-1.5674202981418468,0.24160138378091855,A
5.550906610573483,1.3873433888338553,0.5375923755604922,A
3.9181156846610143,1.468745349746415,0.6236038731128348,A
5.141641378668765,1.652138997710591,-0.17855175780503213,A
7.206222082162975,-0.91602387308231,-0.8673515312491695,A
14.638569406142224,0.7559096890652884,-3.4928528110752186,A
20.049452970265218,-6.425745951791239,-3.5897460703100443,A
18.485543733726853,-10.221247489318106,1.458291748171156,A
12.279635701403839,-0.5388119364607149,-2.152408455056731,A
8.09829250788995,-4.625368518627294,0.18966597139573294,A
4.941825743246804,-5.704122392605214,-1.0763994657550549,A
4.547591140750508,-6.650341239971922,-0.7798943727507655,A
6.603049729888719,-8.196166028996634,0.0454112090622181,A
12.01466872534587,-11.427761431622272,3.173284583495652,A
15.08256139350558,-7.08595324431566,2.6357088925790815,A
16.145855685532947,-1.8649008415174049,2.1133191707613856,A
14.886118786496187,1.3515854971470318,1.0950139138876536,A
12.791918785725372,-2.0163662279498205,0.9626979318612117,A
8.75005058256331,-2.3366111834853136,-0.8838687240122053,A
8.283669534839728,-2.719551819894829,-0.33446122910592924,A
6.738616551175034,-0.39872737571242817,-0.2862889938615577,A
7.655570871956967,-0.13405672970700813,0.6806782820029863,A
11.03220746465475,1.5409590683196548,-1.7984543870630205,A
13.016920344556652,-3.809330502896525,-0.21321245595859517,A
15.818114302752683,-4.858172369662709,2.260680007964343,A
12.661347970691255,1.1946351415661105,0.04245704327857358,A
9.96119658645862,-1.9011729341753378,0.9326416567315956,A
8.604459888499129,-6.859762996411168,0.7835293118573058,A
6.80698448946729,-6.493481501305398,0.3506120779733914,A
7.427351077180518,-7.586060710941526,2.481973080706783,A
8.482649304976244,-8.302393189404663,2.9193817932942987,A
11.911183022635965,-5.869282481989149,2.8033254215826258,A
14.3435416546372,-7.67303637279846,2.4782477131350644,A
17.60573075327328,-4.0891052532602865,-1.2054555528721034,A
18.425601131876288,-2.8307358504042117,-1.28945630574653,A
13.942454841436314,-2.1672284243829423,-1.3953482202821155,A
11.82012295474905,-2.88709946367225,-1.4966666907462862,A
9.322612148991128,-1.3313286059784228,-0.21699707171032712,A
6.8265274188438925,2.1085481975338634,0.7615570794887052,A
6.04316721540021,2.7767446130074376,1.885795311982669,A
7.978391304059226,3.2348917479307078,-0.40670464425655645,A
12.848916777376113,-3.1086143510700257,-0.22918314537194495,A
19.7152344526528,-5.375828475693518,-1.3786047865387328,A
19.01892301005732,-0.6892482335646472,-1.9071500901890024,A
15.201808375511787,-4.672627101845219,-0.5957650500649411,A
10.707767965226571,-9.000855281389093,-1.61964281922518,A
6.308335934152989,-9.281698149478846,-0.11348068889180095,A
4.868443636375183,-7.509642432345309,1.4785474726046113,A
8.790544800736658,-9.98898664065663,0.6645046689647911,A
16.024498831898118,-9.437724461885322,0.8245418866785151,A
19.663327203081312,-6.482400174086384,0.44922737673731544,A
19.702908555930257,-1.6201901211441516,-2.6093851131843087,A
18.290238360619778,-1.0585769745562155,-1.7101386621765586,A
12.738678411936156,-1.5889674941003964,-2.678810408641169,A
9.449437097680015,-1.7359241635216618,-2.0527742897329353,A
6.267781566317205,1.0409900656846807,-0.9959895331457166,A
4.652199262087576,2.186100021068286,0.03340718021729444,A
5.719327502682944,3.7368447451963998,-0.565723524390668,A
11.45438828185339,0.40892892890189386,-0.7247267297755318,A
18.615977460379,-4.910403219624351,-0.2789070756927532,A
19.964095252548013,-1.0708042942301799,-1.372345878542047,A
17.309103535743855,-3.4166313301748854,0.4770635379530074,A
12.479310580606354,-7.448012724631148,-0.32575627132878265,A
9.02967416323762,-8.199668698818313,0.1307837817866215,A
6.911405179026805,-7.529655805144734,1.3946615030507048,A
7.661026083192933,-9.536712591198024,2.2479169429394825,A
14.808082724218762,-8.0435843046184,2.0138680752541247,A
17.328994136324475,-5.420505644611269,1.3493936508861741,A
19.028505818954567,-2.236448616222095,-0.6209637286914216,A
17.659166457794168,-1.495484975730089,-2.8640492962327646,A
12.84460068049014,-1.9622544587573392,-2.453058815904534,A
8.851848329751084,-2.949240499776715,-2.9291407200464294,A
7.904903581657746,-2.518959158787487,-2.011408400239507,A
7.696798842315072,-0.7896359349365241,-1.3656479050245054,A
7.230694536201328,2.355477330416413,-0.31267548085492586,A
7.568523920728113,4.695528939279264,-1.600843145502812,A
13.475378908626721,-1.948684540457659,0.6504442992737384,A
19.294004700458807,-2.1554245579205635,0.43271832399603566,A
19.463401062535606,-0.6083667503881368,-1.2011538251737406,A
14.957558845653129,-5.836194705193012,2.1703781655632426,A
9.979468353152555,-7.919626627393065,0.6192106797028332,A
7.206718454814852,-5.850248287379113,1.0948893408353628,A
6.410796571484352,-8.27169128373014,1.7910501991967251,A
9.629730698551024,-8.32992649824646,1.6572509873586885,A
13.49141737479032,-6.1674207528323235,1.217693753741967,A
15.856917722927736,-7.813144578638026,0.4571912115924214,A
19.627218273875542,-5.161380145739832,-2.974760222848927,A
18.31641938416777,-0.10642883029876873,-2.6958686973610515,A
13.048556912964314,-0.8735287722243253,-2.565164628173351,A
9.473042848052335,-2.756921350709169,-1.8554612417599483,A
7.486784212428178,-1.7039785138813994,-1.0079874410455025,A
5.497790918621979,2.522493091405165,0.031156943361403212,A
4.455170464265251,3.329657556458953,-0.22464032446017423,A
8.386088380813375,3.7353748475717143,-0.9776555876530543,A
16.09448891797426,-3.717556894417889,0.3652161221725063,A
19.597370155224855,-2.912484190115112,-0.7477231169518154,A
19.502997315199966,-2.4660878229768857,-2.371122378820025,A
13.834408325735456,-6.5107629827204905,-0.24735256100462025,A
8.378002819345072,-8.028147369301287,-1.8809779640721478,A
5.96292196928245,-6.859776189229025,-0.27707927334250526,A
4.997515972340116,-9.879325532225288,1.1222342203715074,A
10.671464426545805,-12.712283100364173,2.0363473520129585,A
19.413788462356525,-10.407517872571002,4.0767328341303015,A
19.488979988079922,-10.745300933818301,-0.38899786292040184,A
20.014290770170543,-5.242744064131587,-5.681739406376234,A
16.03110061782989,-5.964824797413786,-5.740258390535104,A
10.057332325488956,-2.1626615165113328,-4.463340154700456,A
6.970655890058367,1.9076691536407162,0.09195135070754096,A
4.320687487287427,4.465375106341071,3.810939756016267,A
4.174935379551629,5.357997843953447,7.9089113059905465,A
2.5057486020461104,3.846758538817607,7.56982309666344,A
4.4351260457027415,3.4781681532884607,9.230821849540623,A
4.053487742923846,3.7514637225400684,7.737086011988151,A
2.9981593900132193,2.8412321538160725,6.246242703640915,A
0.807192639199352,4.64720046520165,4.563568468023847,A
2.3809102817480405,5.8059108370937444,4.403457145655915,A
5.0828412684244135,3.3243784812663275,2.4430066577498626,A
5.577690118077597,-7.515454389989116,1.4371459937785698,A
2.137728177622221,-13.202541938149572,-1.956411165310632,A
3.7884158171851134,-19.984922422178393,-4.873387335671153,A
9.449900366546066,-18.238371121263807,-0.46523903595970667,A
6.664093423237809,-11.428360320299966,1.133046182215807,A
5.434751099355204,-3.397290703536145,2.046821394384407,A
4.447598285042143,-2.328364138723904,2.741974265898006,A
6.150901493727843,0.07588523576990468,2.8995735667535136,A
8.417817728853734,-0.10189088228292548,1.4894840218882655,A
15.18495826403261,2.983660172005075,-1.9736217425257205,A
19.395194882857922,-3.3342877911545323,-3.826015283844928,A
19.808275863651726,-6.864194913915021,-1.269289362245753,A
13.730796583520045,-2.1806864342397936,-2.7735439171158234,A
9.937213709646517,-3.9539040682921995,-0.22904777440719434,A
7.576220733907123,-6.059807274864571,-0.9896704722573194,A
5.781240776336967,-6.749775623428173,-1.1466487516747732,A
4.421050605449954,-8.170571090666947,-0.08779481583152775,A
7.9078110339329415,-11.180645600822874,0.1821891669731599,A
15.837042600884239,-12.181678002294005,-0.3828720763085103,A
15.3010503104345,-7.840370653808127,-1.404417742977511,A
20.051454032408778,-1.465721274108465,-2.323210535635974,A
16.23233073905667,-0.40381636081058536,-0.598108533033818,A
11.665563248042474,-1.7726842910786393,-2.0529172024569036,A
9.266694035359697,-2.800616065659167,-1.7574577691026207,A
8.788923290510551,-1.416781723280982,-1.2421663498103634,A
8.256820448403635,2.607004402056403,-0.6998159820931069,A
9.46688745423829,4.012613963069368,-2.273728947692545,A
10.919158076145662,-1.5523895446189186,0.05246312739057679,A
17.307496147636357,-2.7914397448344115,1.590804587807312,A
16.44876440670168,-0.19156363695227802,0.23943521735254236,A
15.12498985363202,-4.227578506887567,3.4476318566175155,A
11.622791321617235,-7.0904972246162465,1.3237221256033502,A
9.851580043101237,-8.25267832912231,1.023115186163422,A
5.6860209931897865,-10.774525313738557,1.1435534703014798,A
11.05183081220345,-9.225439105236608,0.8875623490201421,A
16.872189975553734,-8.41045118655357,0.09668743521186686,A
16.97348015193372,-7.027475840372678,-0.5402759605933178,A
20.263286145509603,-0.2628812765208436,-1.9717711568124618,A
13.161466573307496,0.2525538813226429,-1.5351114122234715,A
10.53183066261909,-2.9221390507445197,-0.8673531208677142,A
9.666227897463518,-3.228405426068922,-0.45095506982871536,A
7.481238015203889,1.408797160031157,-1.1400967836028983,A
5.467847215126389,1.3440699494028505,0.3952481908493977,A
6.127788259282131,1.7506965906616156,0.3394875977150191,A
9.40139083628516,-0.7748496222156959,1.548035039343599,A
17.93446403907645,-1.0592350428796713,1.2549743260184156,A
19.007252925725947,-2.104958075400576,0.8513048539658702,A
15.777429263266185,-4.433607944539445,1.4306290521379155,A
11.604883629078445,-8.601757036211671,-0.4672421504865363,A
9.266673675738756,-8.093700660092404,-0.6091037862116808,A
4.622615405873934,-9.884115589355062,1.9206724540417328,A
11.20903101723576,-6.946642400735474,0.5974923882739444,A
13.762213982299679,-8.883797667155765,0.1576412882880387,A
14.463704633341937,-6.941804267894817,-1.1209108828283518,A
18.119834592114305,-3.208162582680992,-2.089242636861815,A
14.499837386768093,-0.5451036889137405,-1.226766427317832,A
10.087883859077005,-1.210563667958005,-1.854467980213685,A
8.771856069884437,-1.899426458099378,-1.5626148878649289,A
8.470547323581158,-1.4409120529494932,-1.015644456531741,A
9.372339078976102,2.37019446530153,-0.5123187285992187,A
9.074549231642484,2.942351080286988,-1.6856587539689987,A
13.444361227905027,-3.076258619740145,0.9579187449708263,A
16.27934089199267,-0.6342708672604939,0.5141654109712435,A
13.32872807155537,-0.2538911418244792,0.7418848818548156,A
13.96581862847813,-6.275670299985407,2.2211660091036323,A
11.032842203875667,-7.565507083630401,0.33319624563006306,A
7.558654024131406,-9.133814568739075,1.8839194614567818,A
9.227629609889787,-9.788333107044865,0.2621501557143155,A
12.4772069037502,-12.14814997537325,-1.6541256576155747,A
14.903184651248026,-8.558298175024872,-2.3525494035588723,A
19.264325015763635,-2.4294258041092274,-2.837622869957458,A
16.753715378458324,-2.110847029729739,-2.2882215586841435,A
13.93164110490834,-2.813788731518157,-2.6968474736187695,A
12.038732762034702,-2.5589268936988194,-2.3290015758516143,A
11.005455010270126,-0.35846496640381587,-0.7047281827127809,A
8.648035851791706,3.826450630551007,0.22198777754444632,A
7.316294413266132,6.484472153019443,-0.4621613241887439,A
11.973603186315303,-1.2871494476832763,-0.38978466857477195,A
18.505986070849666,-3.4195474888216375,-0.0007462569727940516,A
19.861066776899907,-0.9457167125337057,-2.2558163472550308,A
17.316734156705657,-7.762615250162298,0.8565113249382302,A
9.590145349931857,-9.489579849769301,-0.3229527077026059,A
6.161062865135205,-7.036910521762849,0.6850622625249728,A
3.8975652989825416,-6.934393254753849,0.49545387227992105,A
9.98361915869193,-8.001873710151704,0.034363737146575084,A
19.39135294884511,-8.582052924443436,-0.4979917896723291,A
19.587407319812606,-4.160200059648128,-1.6871411355446453,A
19.2164139805992,0.7269812672666954,-1.8230663804273242,A
13.292501599201964,-0.19744577772593386,-2.2160518473759967,A
9.868474802018987,-2.3944437864354486,-1.5269897203959948,A
7.295151945144205,-0.476516574768021,-0.8629954563857265,A
5.72047561048989,2.2933045604818623,0.08338225038098242,A
6.782501775379929,3.5789053504459964,-0.24001897391176064,A
10.10974955584478,0.7774927865500557,-2.497677388159167,A
17.073798519178066,-4.808110805923555,0.7801831166769349,A
20.160438248869887,-3.217901562667214,-2.1851395984507516,A
17.171284010333338,-3.701231317312617,1.4202826782169407,A
12.201421558707304,-7.82819384926669,2.1147552362005384,A
8.436732948833571,-9.165003528741549,1.042356763339976,A
5.366769561503263,-7.396268904556516,2.875549531223062,A
8.401402778513484,-9.290731520835045,2.090769520460694,A
18.94970766240049,-8.805695432346605,1.1067537537602263,A
19.439430695097833,-5.169796844121205,-1.1286361309085613,A
19.653630432260446,-2.0637109262890294,-2.150839054604936,A
15.645942649059393,-1.8755680083052289,-2.0569599555393876,A
10.304369974796295,-2.287171477187115,-2.364423122794171,A
8.151560481150598,-1.7190474866386773,-1.9270700991909255,A
7.436329369885211,-0.1489630116998184,-0.7160881466006184,A
7.241395641290369,1.4501711761900495,-0.0709120327195034,A
8.178196628496943,2.8144174057833857,-0.8830805803506225,A
11.841832943347214,-1.7742192626925188,0.2695380386738795,A
17.78164472683127,-3.701389343265843,1.413910520072401,A
18.15079297463884,-0.26347435785218437,1.2386906421522321,A
14.380008745434331,-2.797113409059767,1.9216474452410421,A
12.283827216492218,-8.822774920615409,1.523690958269162,A
9.78695086121809,-7.559452125683497,-0.48525213054983446,A
6.026657269530386,-12.646775904142022,0.3698150095186339,A
12.137059718755523,-14.361882912934362,-1.102711413114189,A
19.058146070245712,-7.196290446270919,-2.1052304517233535,A
19.5639104578312,-2.3610312323744274,-2.0843259549185156,A
18.295545141917053,-2.0827351763422732,-1.9483403410685618,A
14.236264724981755,-2.485690518799533,-2.0762708051982637,A
13.821096076576564,-2.410591517382345,-1.9747810807009003,A
9.553841624868012,1.2928567403017048,-0.9401179626477497,A
7.004252725644017,4.347918487067877,0.8283073082477973,A
5.815086100354207,4.650875861619535,-0.2125264529690563,A
10.905870676566558,-0.9306572743933934,-1.073141821644734,A
18.290351857387805,-5.040934253305433,-0.8648954634502207,A
20.02388007408862,-2.652123576462513,0.2978008078431451,A
15.836235035573573,-5.29323871921323,1.1427810349984908,A
10.871496470029058,-7.554629864113373,-0.07709035626174297,A
8.689353955004096,-7.770507957261988,0.029336853763504506,A
5.519185733529629,-11.00191765654543,0.9985651051235465,A
8.17728343810245,-11.242562279503534,0.8927129845068067,A
17.860998264851688,-8.02096033063627,0.6005419977594485,A
17.46165425838266,-6.322591120385873,-0.5561804787744629,A
20.24553785348233,-1.8507832864078961,-2.0609486434052746,A
15.478677318356183,-0.04310150401101012,-2.313722674583968,A
10.880966341840484,-2.6943824485208907,-2.0965194618581324,A
9.436532484166678,-3.6337932363016865,-2.476292595806358,A
9.678887321387016,-0.3428676281076583,-1.424515989997544,A
8.605552739132708,0.6656858627719356,0.03296559288367547,A
6.009394482877163,3.8015602876748114,0.41598657895538677,A
7.7553950158047975,0.26117355294004363,1.0286786363881297,A
15.204165615911663,-3.541604916438665,1.842534295003193,A
15.42285938224118,-1.1121582528519476,1.2162773951085586,A
16.379135863456074,-3.5829362206841724,3.001866315290763,A
13.240291213470915,-8.706078889177821,2.295105808501589,A
10.310227130965004,-9.925476559176406,2.3688549957682294,A
7.560667257023626,-8.678219159238473,1.38631497476569,A
12.346821686205438,-8.64776991974878,-0.04357602334647975,A
13.984219650775756,-9.916312026459146,0.1191414711700612,A
17.710292401949157,-6.5414733324925995,-1.6795491010432102,A
17.936413857997987,-1.9696709282036584,-2.0352560538361035,A
12.625874354049188,-1.5959572339031627,-1.4757130874038236,A
10.109037345602694,-1.9086833353710322,-1.2698967972262407,A
8.196219303422305,-0.261560850470506,-0.7726983403490963,A
9.494395132164119,0.35504224187794026,0.0435673233059412,A
10.994319538320454,3.6806690992853066,-1.1330179435016203,A
11.033575852800407,0.07921455967389471,-0.2529303072549759,A
14.033143507892007,-3.713795993971962,2.8192793539435996,A
13.907982340722995,0.2942465844275698,-0.27297530421319144,A
16.12627253859642,-1.4155147868192162,-0.6972818845849988,A
12.049589950322499,-9.842509582976177,-0.6533629941804544,A
7.1138898926714065,-11.54518733764101,-0.3653604223507757,A
7.880792326968377,-8.610895392758287,0.6281720317626627,A
13.820133883377196,-10.66473296974285,0.5870420165852626,A
15.437936257890824,-10.552625615601272,-1.37993573100045,A
18.92965046807687,-3.185330722227143,-1.761921132201886,A
17.433857244991305,-1.541993056816258,-0.9051603453713272,A
13.571746410280594,-1.8922340899923697,-2.146549537465227,A
11.931703850971433,-2.1819969572024243,-1.5725748896873315,A
8.786861897612026,0.5229855636790544,-1.041388237444838,A
6.851907752742,4.41697630454426,-0.3972507365135019,A
9.693773720334333,5.388445209722008,-4.884656713251229,A
14.024239323711612,-4.165541598667349,0.19075055056609663,A
18.930994123933672,-2.2938843088261693,-2.4993347117196834,A
19.87548349847617,-1.8820706455041272,-0.13705260498812585,A
17.409380002158738,-7.2652624128053835,2.4914225506286427,A
11.574676704460504,-8.43664738150589,-2.2622409719149466,A
8.138738287114043,-7.500922406527238,-0.5805380911530825,A
5.058594197875436,-11.652342091408352,-2.3017887725026918,A
12.968113125120144,-13.063894890003352,-2.347353601085414,A
16.651389906127275,-10.153999183020154,-1.9820733895365716,A
19.77115988646273,-3.619962437634626,-2.6374438030508465,A
18.83161242430858,-0.9014792255607006,-2.0234423775518913,A
14.331946893239241,-0.9573296535349982,-2.4064461923288225,A
11.11898985727746,-1.61538904450308,-3.12623518651306,A
10.861065637276424,0.37097779218665605,-1.7720218225484516,A
7.955764840303906,1.4454147552113277,-1.325082567940684,A
7.6959878249615405,2.516249416680571,0.4291709255077997,A
10.042266443681195,0.6959425337425325,0.8126433060748014,A
17.44328364445435,-1.8997473078652334,0.8765127442506231,A
19.2261866134119,-1.4028765826002445,-0.9803656811196597,A
20.11792337064513,-6.56060973318275,-0.018703346560760264,A
13.486378534007901,-15.570187221153484,-1.9220088630819057,A
8.040054502551106,-9.385940125164824,0.5822630069823278,A
5.709495780087348,-9.22531621134268,3.440557603023583,A
8.282364313300347,-7.496695774126497,0.5600443576131496,A
15.946946461407004,-8.626223923382076,-0.43376686852988044,A
17.371574277841706,-9.1727332370106,-0.2570945855575545,A
19.675463302850392,-3.827765672792067,-3.9521401783679595,A
19.290292099249314,-3.6728005814281723,-4.307306085866974,A
13.756066201704886,-3.884841877711957,-6.909553759962215,A
9.20213428731474,-0.6651298849494616,-0.8186658355391437,A
8.783222731158009,-2.4065552059302764,0.01669863039935608,A
8.429716231599386,1.2912380419195633,3.782147563299272,A
6.6274235812736695,3.359957143003337,5.088966612688624,A
6.980382672793947,2.842257600058018,8.991682585704835,A
6.794531623837471,4.424116850594337,7.998724581130673,A
4.5899694868528575,3.1746486079376126,6.697741629646399,A
3.206890469163225,3.6693323568421463,5.904029278444977,A
1.6745917545923323,2.6323204784397176,5.926548525118532,A
1.453899628863007,3.292838677843551,7.04067711086214,A
1.4111280100480597,1.9397600326199929,9.70967072242925,A
1.102851555316714,2.937600319792553,12.108760899024668,A
-1.0170841208645858,-1.262433733772264,13.860209156305467,A
0.6656147598989767,-1.4418586835169707,11.979759696886802,A
1.9789387891254346,1.6533570397531117,9.026630264035802,A
0.23422997979216637,1.0486072089936995,5.944576186804595,A
0.5962465417355166,0.3861998293503752,7.206298619507632,A
0.32475829012022206,-0.29545433525179715,8.260905535203662,A
1.2706490418416836,2.382926593774529,10.491467729898002,A
1.4147420408848328,3.6248056987701776,7.8471964145905035,A
4.329426405770873,0.9305861781656536,9.20577808953495,A
6.414926945207053,-1.7911982903091888,7.4885330658398175,A
7.946106418268314,2.8350951339743373,2.011801635079981,A
8.524271258432341,-0.19053674451847424,-1.7214357046964814,A
9.486152324859901,-6.100780111003177,-2.1456886140357736,A
8.42699839703881,-7.917284466930031,-2.192068494417527,A
12.406405803114477,-10.334364717871484,0.49092169257669493,A
14.138789385182452,-12.412987771130899,3.993972392975897,A
13.91118978904201,-4.980825164562387,3.814780386609783,A
12.327680802422623,-7.569619900885991,3.7261958793248904,A
16.967640155163036,-9.163147212282588,2.2952537249643976,A
19.75453033388795,-4.130935820041042,0.4839458018768341,A
13.521833843412589,0.7312792398034452,-2.0539283772015566,A
8.57809073985709,-4.110038896965852,-3.1235070982782087,A
9.781280023764587,-4.917351842495006,-1.510937154744677,A
9.61667815991904,-1.8073540502783279,-1.751056299472052,A
11.49398761070325,8.368112358997903,-2.440386810080163,A
11.416594951150335,6.284116091194075,-3.841461907017585,A
14.79078043468233,-7.7386873891525525,0.6396604268719661,A
18.990075441098455,-4.733036419550714,-3.3830604231505137,A
19.657593439947902,-2.002084016525177,-0.29529923377810363,A
16.400260442534698,-9.967513773316206,1.3972361727746927,A
8.497902842447452,-12.057738072668178,-1.5389104645569984,A
6.607904556275099,-9.870152613796225,2.8591906517923777,A
8.336949163284869,-9.440053552943324,2.83386994996879,A
18.896325027077715,-8.743114775615771,1.7364800726844554,A
17.84834861550581,-5.940760747201569,-0.455436796587776,A
20.183551094315312,-1.4868051192014962,-3.513499044450717,A
17.772404409146006,-2.0777335984863283,-3.5876931214035936,A
12.510547964093364,-2.0656580610744846,-3.49995179331018,A
9.97253416469886,-4.113430377454165,-3.246146074122305,A
10.423186300086256,-1.4271912133215539,-2.12555657556681,A
9.064137492812874,1.8612013718563476,-1.105492266649361,A
7.801050414137733,7.126592858736977,-0.6589767769903099,A
11.375506750157918,-0.2085668005926229,0.41681507470304724,A
18.872244519436652,-7.838302397946854,1.4782617331282364,A
16.053151394404026,-0.4418323756891314,-0.005639576032789013,A
15.067622038733399,1.7137080631911727,0.9747980388218924,A
15.065474463388577,-8.35359202645354,-0.8707160696907276,A
10.701145696770617,-10.978540009521891,-1.1665396690524052,A
6.730985160953434,-10.390076627857471,0.7901037636357818,A
10.22639472885077,-12.02193377628462,0.09023901942297136,A
14.833501935442442,-12.603648637738601,-1.0356983008956713,A
18.075446432664187,-5.943139507040281,-2.954003331086891,A
20.1275239772679,-1.6452786096296514,-2.756412507438022,A
15.70366615612401,-0.9618082153423411,-2.0140745265423665,A
11.884287982738806,-3.2820761424280245,-2.590131908947929,A
10.72013050133145,-1.9044021115005052,-1.6603757195167892,A
8.992872465341424,1.793152597285133,-0.7823239171352437,A
7.2589389660114705,4.452697619775433,-0.9332198430408614,A
9.605487307757615,0.8715858535960728,0.27149730264452315,A
13.873919734022303,-5.170232541893703,3.121512916704367,A
14.778559777359176,-1.1232474000287074,0.11732632868773481,A
15.6583847744093,3.898194375289588,-0.9712312924821079,A
18.776016520539546,-8.05364026371242,-3.094130856486208,A
11.370962983773325,-15.223728426825446,-4.2032024741835725,A
6.862524250617561,-12.478402832127944,0.7400942080352579,A
6.318425541511939,-10.10420919547876,2.2868275015673274,A
12.939507032670537,-10.856664189707857,-0.19601970272875546,A
16.08030545891449,-9.719031119715302,-1.2559307069450343,A
19.410226883924395,-3.2839212489360605,-2.458883243030501,A
18.789916305885974,-3.6119311174398834,-1.7663444020282775,A
13.142817254861265,-2.7355750377825405,-2.5154802388218602,A
12.167137454685781,-3.254928575480471,-2.079513212905737,A
13.86226787996199,-0.7919762845850169,-1.028212176083954,A
9.115359048253113,5.905941020668139,0.3795383750873609,A
4.067707146209098,11.852059429415544,0.20138385439858758,A
11.259642461546497,-7.871186236841375,4.598240790439493,A
17.5936043230495,-3.833796569563304,1.779585802856495,A
14.807137697031548,6.9698622002810895,-2.3689061936425793,A
17.137033658854346,-2.911922089098992,-2.9846940590042523,A
12.999618064545786,-12.182420431966412,-4.767079060216001,A
7.187465537640937,-9.738218837549494,-0.8134126465845841,A
6.701611866613196,-10.484832065273288,4.800153812646593,A
11.11406600797185,-10.480574937940021,2.6791798243444047,A
17.573070263329154,-10.831080169647969,-0.2668398150775515,A
15.771302365408804,-5.5435463134534615,0.10640165989210373,A
19.75743515464722,-2.849103678731362,-1.2196633613803876,A
15.342961047110661,-2.6141714756886976,-1.966582965191245,A
13.043220068912703,-2.8081269066969647,-2.8060140485327905,A
10.797323032365941,-1.7839657045886375,-1.597298450239581,A
8.92420839840119,1.9784142109517828,-0.7755040407837213,A
