accX,accY,accZ,Activity
-3.820868498219366,-2.0594593285722675,9.975680467767488,A
-3.001367944304648,-2.4008773763251274,11.47216219998006,A
-3.1164645329850336,-3.172872718484123,9.502262563777288,A
-3.74701439572903,-2.7626282853187054,9.753301801383747,A
-3.5662736393509737,-2.1265900810717984,8.045008462089012,A
-1.6565827910832565,-0.09698554424226875,6.171244670266014,A
-1.761520152167698,-0.38534684882719744,5.2060078845641,A
-2.0748774825366874,0.5045927599291832,4.426681686722429,A
-3.9693259680969826,0.29598533900817336,2.4157735763921186,A
-12.343349146373775,1.1354412654443167,2.513241890226243,A
-21.989238519136816,-2.906776289158065,1.6466617353946436,A
-10.252902186361508,-2.918632802485907,5.564871937892284,A
-8.816331196324663,-3.244467553853481,1.029638657501208,A
-9.391244061833211,-3.3925167036149912,-1.0839795380792134,A
-6.9407332222517555,-1.308505609428413,1.8989662784177566,A
-5.457530048461555,-4.020746307865418,1.4144309696564732,A
-5.956715681054062,-5.087285286949637,1.8363222465448001,A
-8.620877138605305,-6.262023516637804,3.649523405406814,A
-15.14140852302207,-2.9049921024965504,3.7840162776451782,A
-14.411964603428316,-1.1782920142518818,4.958266863750621,A
-10.85801021420733,-2.24108667987855,2.681342875321605,A
-12.80059695911009,-2.9272089334794127,2.492784187015458,A
-10.329148171913689,-0.7889791117016213,2.0043538945200408,A
-8.711965537106424,-0.7711232508644358,1.6422788729122246,A
-7.61013721585349,-0.9261284355874358,1.390662002188629,A
-6.183870862138447,-1.2224611934533358,1.5990420147675055,A
-6.587597938795797,-1.0326909965063693,1.410124183042831,A
-8.849371162008897,-1.195403872083383,0.8890937794315442,A
-12.653286919454457,-1.9563429003302588,2.0389326252454465,A
-14.648725558934112,-3.4457023348096465,4.0442880474331036,A
-8.534612259977733,-1.7306841410863976,3.312796522970867,A
-10.353706534650842,-1.061385881587444,1.0151921505015742,A
-9.581726569082546,-1.8124446241563112,0.8303524333045234,A
-8.52669529560567,-5.0681014063611425,3.189412565120063,A
-7.31467144518696,-5.100836939628808,2.8453055469789925,A
-9.161749025800553,-4.691090456299985,3.638251587556317,A
-10.309052575769282,-2.246343458254047,3.14770860100863,A
-14.821910226541247,-3.1286871160861005,3.843392156941539,A
-12.35841437093183,-2.7547084661684305,3.5559148046859654,A
-13.188515219122865,-3.3866880964576906,1.8454837837288633,A
-11.938220525548667,-2.254660104717614,2.0234462842133025,A
-10.320664820809473,-1.1734160001179046,0.8128012571514587,A
-8.77695946803076,-0.9755732122573613,0.9305805614418936,A
-7.8442184114465,-1.4754521296559804,1.2406099349740327,A
-6.0536424330327065,-1.0884149285750673,1.140723738146668,A
-6.4329441044757365,-0.8504004620605036,1.0416917458866697,A
-7.288523656192901,-0.7811191007983459,1.0804407881095563,A
-13.764524974091145,-2.666117921550319,1.8653751527912688,A
-12.289108723521707,-3.9001175451066317,4.462932795033391,A
-9.72910057212627,-1.627938165393671,3.2233112759302758,A
-11.262281875003293,1.3529062817983368,0.24594642882865184,A
-10.30878847778275,-3.0940108625561775,2.9089379426274893,A
-7.859414206077229,-5.682027837365527,4.664424676228305,A
-7.834282728568418,-4.674605404910586,3.971413339273854,A
-9.97736694902469,-2.971966047985036,4.5133939586985194,A
-13.502041598148267,-1.2598544109485228,2.970576922667062,A
-15.424111089457686,-2.162444855152066,3.4182108059848764,A
-10.98368468066423,-3.695362045397684,2.030301556998479,A
-12.814195696552016,-4.20105935798645,1.6173571504651971,A
-11.133645410993331,-2.284411724622147,0.639458259563892,A
-9.550555909095905,-0.47453523475344417,0.11142082342223499,A
-8.625691958299639,-1.2221850432631653,-0.07524259742985422,A
-7.235578758691844,-1.4716776882113118,-0.258340659108491,A
-6.898692631830947,-2.000689513495796,-0.13139456913060188,A
-8.48201023779103,-1.3145960535784367,0.15077811836539382,A
-11.62055513861713,-2.1617296990222092,1.2783183027410023,A
-11.936632521506617,-2.7413459239056883,5.03745114187536,A
-10.258393398703983,-1.4372021601171976,3.2034159816758563,A
-12.046039459214361,-0.250901204402623,2.6857621957387527,A
-9.316986967955396,-4.616268498271186,2.8592346543010025,A
-7.02701015318677,-5.395214207247889,1.279958133741999,A
-8.277221896629866,-5.358865692171132,2.5938101579008,A
-9.579972612772826,-3.082614020523245,3.361353516271227,A
-13.744412961629187,-2.6380486323610226,3.740025599302283,A
-14.236159291657918,-3.8181488344259007,3.5809963553862403,A
-12.302626480042042,-2.6645958736969955,1.8851237901754634,A
-13.064055289850636,-3.222715335017455,1.7404583181274418,A
-10.499457520281386,-2.0754222702243688,1.3890869097522016,A
-9.44522334302609,-1.1807309580170828,0.2875204726861976,A
-8.27346070325008,-1.5541205377229113,0.05279780559076228,A
-6.908652942021008,-1.3634421577708602,-0.10317764338476332,A
-6.43261338572621,-1.7517048139115912,0.3039304660739407,A
-7.797453811813966,-1.3618672633984064,0.30065861579559755,A
-13.055886704012675,-2.19924819533331,0.961932727104448,A
-11.765133171033995,-2.676391405570808,4.204650449669683,A
-9.13063882670471,-2.828523504210556,4.607686641158568,A
-12.041990267384207,0.29888717226391154,1.516468768222989,A
-10.685626873166864,0.24673554018916558,2.7588827674451375,A
-8.89740744412131,-5.432815569159564,3.4057231233872542,A
-7.768811021991752,-5.616712369329405,2.8098833528408447,A
-8.94250591288551,-3.2716896032242007,3.439691960942034,A
-9.56316617765582,-1.5297507823889656,3.1759605523249514,A
-13.755752159576547,-2.994305099392567,3.1291637683555056,A
-13.77140749976115,-3.0651675739889086,2.982581906739326,A
-12.499518756587065,-3.618304742917119,1.5119962617370473,A
-13.120777003660464,-2.7847369554667303,1.4885566234065348,A
-9.606783652278052,-1.1750812635177037,0.6375444492126747,A
-8.488693007663565,-1.1879552838733116,0.41278719514082834,A
-7.249250962012727,-1.7490688883408383,0.25027129793511066,A
-5.634180015654257,-1.683825570281753,0.9793415316217601,A
-6.5639961000796445,-1.6289433015400736,0.5121265533279313,A
-7.548646824829111,-1.2711246187901133,1.3887101904516015,A
-13.932520581498732,-2.266586837471666,2.407901311163813,A
-12.597900858030899,-2.730627557082988,4.417036010645559,A
-8.960722905287625,-0.8232112194611281,3.250073396526199,A
-11.623669238109626,-0.2859663051767484,1.0439513203768325,A
-8.5431213437647,-2.7036552150470214,3.1116507384245713,A
-8.595713072382884,-4.012389701021021,3.6740722199498004,A
-8.00316179874109,-3.3689460169138,3.3124727069094213,A
-9.259969831426346,-2.936543827456389,3.3135029312799276,A
-10.563486330246642,-3.290694455143919,3.5621431354381454,A
-13.057015930991398,-3.1069832631912226,3.3962264344859383,A
-11.582298936708915,-3.679998159795769,3.3913556848907587,A
-12.16567342673836,-3.355888698724786,1.8011403163373263,A
-12.102165504912563,-2.5071224963436665,1.9909790927725108,A
-10.197724410453855,-1.2451495006740265,1.2284115127352409,A
-8.592648406833083,-1.3575321835420948,0.5588827716289525,A
-8.339911101699617,-1.8737792358116272,0.30553457942859913,A
-5.97542285876352,-1.4170953449845056,0.5672813231883559,A
-7.042712936679417,-1.6089847081018158,0.5812612258185621,A
-7.870948219504597,-1.1203468270391135,0.6416055836552373,A
-13.693985199628024,-2.4476661544893115,2.0939230927631054,A
-13.085028775115841,-3.235320068535133,5.381885269054981,A
-8.916012797038794,-0.5724058328749572,3.2994247376667003,A
-11.33548006393239,1.2384780064149992,1.0350616756219027,A
-9.141436838278675,-2.8328862928013265,1.4229818312591045,A
-8.44197336731729,-4.994869230906869,2.224199102586128,A
-7.200286080111431,-5.020318720959664,1.5871510222938003,A
-8.378587349297984,-5.332417625514288,3.0928048549853124,A
-11.647013009784356,-3.610881969268444,2.7669670353090483,A
-14.979272201237796,-2.389538403767309,3.454121620431631,A
-12.447426865664326,-2.5768937347568266,2.6719817550419935,A
-13.311140894149505,-3.9507799588366193,2.2405454451941904,A
-11.526602115097614,-1.7860834477509215,1.513553740729574,A
-9.334095455277636,-0.8378018283681448,1.0064325893454102,A
-8.451771694043277,-1.193027962565025,0.7675213150882814,A
-6.459940086848374,-1.3453007698386144,0.7268088637416118,A
-6.239014217831016,-1.2338971360955362,0.5261693514930222,A
-7.545004177877871,-1.272488808726819,0.5438043349387606,A
-14.192525307048202,-2.439191584699199,0.3595656805778078,A
-11.164620517311377,-3.6324964249683354,5.034314691015516,A
-8.838783233279429,-1.4448850845957335,3.1197116712075137,A
-11.482080034113876,0.22471122961882686,-0.6187616445027856,A
-10.001236313500366,-1.9769242071536621,2.3354374516297085,A
-8.742892307472724,-5.512849825957296,3.641670274979438,A
-8.23736254715506,-4.8462879624602895,2.9625351426352915,A
-8.563677598494545,-3.9424619739423563,3.638903367830965,A
-13.375105228809073,-3.008754399818663,3.697057996101863,A
-16.28951961356841,-3.5883958620171126,4.3530110838414515,A
-11.015159197144131,-1.985072705312834,2.19762696277659,A
-12.862679685482552,-3.6615391065441774,1.834759120367562,A
-10.598907583103117,-2.329186619920386,1.3828378364968938,A
-10.304960298810887,-0.9883887536970004,0.4559852032269953,A
-8.235419531200986,-1.2171862296441824,-0.1591945712862976,A
-7.26846578132632,-1.7741503553401599,-0.22822857739918664,A
-5.884153914913341,-1.6263105240669298,0.04028423250539864,A
-7.331173026610284,-1.753361582012699,0.400185931221714,A
-9.10216060199843,-1.2120317577407282,1.2210940888072281,A
-14.614849845422569,-2.4153245943771737,2.583352650547519,A
-10.857893312703197,-2.091018046666133,4.983929340003576,A
-9.748209130641902,-0.5193322031418168,2.550145953473549,A
-12.072110074858134,-1.3941946282685884,1.3705848001423209,A
-10.531739933258653,-4.823249593185039,4.564716255372477,A
-8.582509340773614,-5.376209675433802,3.4778383369535564,A
-8.151280521440533,-4.343813054559923,3.5597758223204123,A
-11.36945346196212,-3.5616853346054995,2.8474386180974505,A
-13.990790606718605,-2.7993283837622185,3.3641651853475505,A
-14.712153097211766,-3.9088542984641608,2.6459958214968005,A
-15.912345239112769,-3.0898250900542448,1.0212937047990538,A
-12.473810952013467,-0.6691595089746742,0.4858126978474477,A
-9.798026322945255,-1.0757573794694428,0.2641136639753297,A
-8.402391865346061,-1.7988682959454316,0.0728486733074391,A
-7.032220548970331,-1.1896451294942116,-0.05848314441520761,A
-6.809866288527332,-0.5714023296235248,-0.354416546449707,A
-7.058790385439714,-1.0610528763902833,0.009954428759198244,A
-10.807193119879296,-2.7059867171250085,1.5031485520764387,A
-12.14512507077409,-3.102934061757785,4.590922212627025,A
-10.803102197990544,-0.4853084037266235,2.5380175286643474,A
-11.647777797091374,1.9747086389919513,2.320966939186496,A
-10.93240878784739,-3.1990292790000505,3.638001131493998,A
-9.748492667842827,-5.738119329388409,2.5174142692405486,A
-8.032720686532954,-3.740755415649096,3.2951478941370684,A
-11.61185211490162,-4.001092790188781,3.750676008616175,A
-15.215174704675352,-5.008438917009318,4.784182782615348,A
-13.319389233305536,-3.2319934843240015,2.9458804480242176,A
-15.253463628413376,-2.8956537033700545,1.7812727723349648,A
-12.00691536940394,-1.17161415334511,1.8826260903343721,A
-10.415118212461334,-1.1364386640192528,0.768145735825352,A
-9.631864883576933,-1.6755916267754278,0.05833711453637846,A
-7.835803058884441,-0.895865999630086,-0.07863363924201193,A
-6.840666839730042,-0.9220076943289408,0.01870513913335842,A
-6.803703510790218,-1.192894141358218,-0.015965310352287893,A
-7.754766709620607,-1.9631450134579755,1.1332693948239807,A
-11.701623521973351,-2.2982907169382036,3.2728402226351596,A
-13.236851042147169,-1.7889268005083276,4.28248762630649,A
-12.53488592015694,0.6839920874906882,3.0224993668735114,A
-10.303584088927817,-0.9707087028164173,2.4964828377295394,A
-10.404024221395874,-6.304717297146629,2.4369022161634586,A
-8.095473069246513,-5.921978014309002,3.6075976387794313,A
-8.914524389754238,-3.8462362059922808,4.828457130767144,A
-12.014231804514568,-2.7605027884141817,3.0590159845371607,A
-12.737652073007201,-3.4441721494478093,3.3420728959949453,A
-14.77751364973403,-5.226917014608536,3.416942873413757,A
-16.475500385039233,-3.424734832678422,1.8695906576507053,A
-12.769404513775973,0.13516019856644276,0.8479129353168801,A
-9.677474861397547,0.06859520440127606,0.3741321217565229,A
-8.978221596856459,-1.3983658939189836,0.1793104079628966,A
-7.015555326614306,-1.074523836631264,0.25566622487454194,A
-4.534044099027434,-0.2504602606796874,-0.047281471861944854,A
-4.024202957685094,-0.9647689159174512,0.4118975721907509,A
-7.605872895747616,-2.2040954034683033,2.105242466084838,A
-13.152689239153199,-2.663284978441498,4.095136856947156,A
-18.69634500765628,-2.6195571857495237,4.509682878267086,A
-12.076524696041803,4.385037948523189,4.147860481667214,A
-8.47211469445233,-1.4830446697891186,0.47095573488222103,A
-7.063491920194607,-7.036995826081542,0.688609667090439,A
-6.6360619334924404,-5.171439936915112,2.492006292094523,A
-9.524474317986648,-5.133377327572232,3.6611318812891493,A
-14.75007265104276,-3.9749904888958256,2.85261397944121,A
-12.957565553784717,-2.8233496882393627,2.8649482314882198,A
-13.206863014497479,-4.791595767898751,2.118579009717325,A
-15.16677730630376,-3.667240792561638,2.141392119570693,A
-10.536886484868434,-0.34697409687173525,1.2886137946942948,A
-10.122192760480726,-0.826981047158703,0.45699734137306997,A
-8.148551725132693,-1.280131319208426,0.4593275672113541,A
-7.81165968807335,-0.9736696424267719,0.05145801187248391,A
-5.427167073230685,-0.6196091795464668,-0.20050884990182055,A
-7.059333346885207,-2.2237655327870596,0.6425987904338581,A
-7.980138073680929,-2.2448988584864717,3.1220371371483577,A
-15.355283129791946,-2.748039496208777,3.4600398618781507,A
-15.860029713672697,-0.6927341223739129,4.1240581016755495,A
-7.605922994515028,2.1787053396999374,3.2355587814608953,A
-7.729708850140216,-6.160857768305208,0.8623170875889741,A
-7.598715612689276,-5.886823213740805,1.6674299422971615,A
-9.172686590950505,-4.653818553167308,3.7420580551414373,A
-11.122031242274494,-2.961949409453616,3.6400959008748552,A
-14.246266412406833,-2.6215384413026133,2.715464822724434,A
-12.331837764463343,-3.7181654598087532,2.9880987822772838,A
-14.990515026874062,-4.715453586647259,2.959615858749523,A
-12.836052161456648,-2.445941601423063,1.719444680939107,A
-8.745363719030001,-0.8435755394183769,1.3008386092945312,A
-7.48874094482935,-1.1122293711921518,1.0085518510887737,A
-7.296697164671647,-1.401315055272983,0.9096198889102156,A
-6.283515237010977,-0.9736366936991929,0.591340969457972,A
-6.4792112618919235,-1.5103632725159732,0.18372040637518133,A
-8.608164075754841,-2.3852966069946215,1.0002749743062451,A
-11.07926842456439,-3.137113914553027,3.5680444034254846,A
-13.32125065988339,-2.296381315767282,4.190774921325651,A
-12.91513210894369,0.7457436516551176,4.260945544198925,A
-8.067499346681222,1.1329200287821135,3.429799004579391,A
-7.191533985480963,-2.6972713358566343,2.380811709655284,A
-7.514899996241768,-4.992168332610715,4.015618637031786,A
-8.051524443176035,-3.556478376510237,4.5343507866332144,A
-9.739150218966477,-1.3968196992931652,4.403164164280927,A
-13.556239294246884,-1.4032474340751362,3.4034230027521053,A
-13.858161136211013,-1.778965835484412,3.2479481461310997,A
-12.854939473216481,-3.3189008280235113,2.507428773276937,A
-12.666200482349375,-3.2355655652691495,1.6359607991109377,A
-8.877652720960608,-1.4372996988264741,1.6418312828856614,A
-7.094070583483371,-0.6899904496344157,1.3239008301864685,A
-6.672249850745501,-0.9434749746657017,0.9894578331706572,A
-6.888159246949972,-0.6173756405390858,0.5295112139219575,A
-7.089580140158233,-1.0739934878841464,0.4712603497076722,A
-8.319279846950762,-2.152071456211869,1.1057311042278855,A
-11.660854411072359,-3.4247467280268835,4.788229308745099,A
-13.085465161230628,-0.9762429634450339,3.981829610068179,A
-13.314286924935493,2.0941190923137345,1.6846160135769515,A
-7.444212657983217,0.04530104141042563,2.717392275055668,A
-5.79887475865867,-4.638494619104635,1.9963109878168415,A
-6.576486686326903,-5.238580915686335,3.2712101029544627,A
-8.761337536171911,-3.744643632575597,4.092879381052483,A
-12.18572384776179,-1.5326662870825092,4.001012417420044,A
-14.995457330467291,-1.3105672156000294,3.0957190306829,A
-12.426648878962077,-2.667751923867533,3.0260022037503487,A
-12.46738812442175,-4.567368065885093,2.7576460768358837,A
-11.736884563897473,-2.860065974510884,2.6547591049715855,A
-7.337143084512047,-0.09468770865544732,1.1783219357985435,A
-6.973607836139326,-0.8840124512622074,0.9795950772466351,A
-6.811749577905154,-1.511273950457233,0.8205851508422498,A
-7.624670233056453,-1.171777856553646,0.5429234980135101,A
-7.834279038979166,-1.3722308710203555,-0.06607580975398498,A
-10.948896575014317,-2.392593207898583,1.4110139191288804,A
-11.663338892457798,-4.111914440926805,4.8400969030318235,A
-13.066554368572893,-1.0805553034198154,2.3086583158141685,A
-9.712482256212652,2.286460523449918,1.9306409407551908,A
-6.584438789953237,-0.16341852302326254,2.617597972318396,A
-6.8831000641116695,-6.8719103618600546,2.0375424289343345,A
-6.862660710544175,-5.64216630195683,2.6640086449556457,A
-9.43542771656793,-1.9274973725466478,4.586820293139795,A
-14.46233398967166,-1.9221852902740169,3.657186729582592,A
-13.980876443303753,-1.6212860845822197,2.8228666403636065,A
-10.738410318391285,-3.975350715345326,3.3051785859159413,A
-12.622671989205214,-3.6812111200515143,2.7304142430165053,A
-10.377586336936599,-1.4217221061701462,1.558389274902699,A
-8.453384708085578,-0.7985488863926171,0.6624302133102357,A
-7.7949225477179835,-2.0210318762575015,0.2332973092191243,A
-7.019152087257721,-1.8601230465895597,0.6934300229052645,A
-6.625566715122715,-1.187943334739282,0.6248056151340146,A
-7.775496388028415,-1.4328014638759343,0.9288927699183186,A
-10.234308969874084,-2.7228670625727918,2.573255868130894,A
-12.608027714954824,-2.664916258513001,4.750212376203535,A
-14.076238928432225,-0.3510168948564063,2.973496351306451,A
-8.702753766137125,0.8285190332825159,2.1758179481301,A
-6.66641525562883,-3.3900312839916227,2.460231843850076,A
-6.727248306418959,-5.238143603919188,3.138569151979006,A
-7.210509954583198,-3.741757432099704,3.6155114963031383,A
-9.626362531397088,-2.884440316069968,4.079077569356915,A
-12.078100527106194,-1.6408069187877994,2.846074295914431,A
-13.348403215164659,-2.866894937787796,2.4355881319159365,A
-13.127456035976971,-4.793685941753999,2.9480270320385737,A
-14.161496577746684,-4.648783730680125,1.949442102754259,A
-10.530747573021545,-1.9914075550798747,1.8313772507952357,A
-7.686046027482762,0.37285083006066666,1.1594793511021926,A
-8.780327035834041,-1.17862245833005,0.4132401282458234,A
-6.1671093742190655,-2.2734936706504154,0.8751964949913472,A
-3.6616464578122883,-1.2674345970316416,0.7306637970186326,A
-5.896397618772798,-1.5129011979605789,0.06851638376802761,A
-11.101070274239992,-3.1030286364924184,1.8909096598614779,A
-14.756007568189878,-4.301868780025132,3.9219947978937877,A
-14.929486055753026,-1.2682102634091992,2.9670799419798684,A
-11.17669773208234,1.1558763865739132,2.3948867329913006,A
-7.064577587746803,-2.5211871475465344,2.3060191378853863,A
-6.005154863664225,-4.621219062742415,2.1030882013825667,A
-5.895130681972339,-4.312018406964669,2.8245235381590437,A
-8.1021629541011,-4.125074999383234,3.6235690169587134,A
-10.667493701564421,-2.9561763370801204,3.6871106470593458,A
-13.942814080472745,-0.9309174921313098,2.8495578880038828,A
-14.306825663363425,-3.0470701474208943,3.370942257348738,A
-13.73642367721668,-3.7805612238844173,2.286700299788425,A
-13.03944911988402,-3.3310128832099872,1.7074965150839414,A
-8.778351183959881,-1.4236750925078316,1.342051043035442,A
-7.397089767016676,-0.7195845786773812,0.9121657306096418,A
-7.463481440053524,-0.9868435863884617,0.4159689394469278,A
-6.736532731193923,-1.5642727636162101,0.8441151957187161,A
-5.557283521709879,-1.008806870812944,0.49716079676137587,A
-6.364712376813247,-1.6359279987881599,0.44324980455311075,A
-10.242143971596875,-2.8837880995740446,2.2329256004068663,A
-14.347423693862256,-3.1284420683536673,4.248228925885158,A
-14.622651770304506,-0.7477808548651702,3.6984402215066536,A
-11.058713967390576,1.6895283885934087,2.3102906722606265,A
-7.331332750511566,-2.3122206674988655,1.7894537352776063,A
-7.365107087283336,-6.464468679354013,2.1082359555209904,A
-7.134748169320884,-5.168031347779643,3.135556386692328,A
-8.951456345874215,-4.383814897447867,4.212998161812967,A
-11.673811183691333,-2.6798112137560692,3.3655313470485484,A
-15.688210467957287,-2.610907713121255,2.8242362226566122,A
-13.681660033855671,-3.171716417032882,3.0631291212571177,A
-13.693875976851954,-4.141992780220647,2.0231249284901076,A
-11.960693932754607,-2.1341727256591247,1.3414059601614148,A
-8.91570204822296,-0.371779625846294,0.704912901769266,A
-8.113903654767512,-0.7714383413233612,0.5588129034733457,A
-6.7900360561699635,-1.2309053375988852,-0.042253381344495536,A
-5.515279803180027,-1.2457925607945688,0.184326912734842,A
-5.7422145076680975,-2.3610018772426486,-0.16233917131787784,A
-8.088355967904445,-6.277491233192259,1.5213211223893923,A
-9.525444077377665,-6.6837436000855,4.376796578575334,A
-12.138543380251534,-4.8402027682375435,4.868894048873056,A
-12.251761196789248,0.45676042061350614,5.313790361603653,A
-7.58723026338644,-3.3727478207908117,5.310036648483787,A
-5.374053475631411,-6.130309488429107,2.8908187725149994,A
-5.329497212137709,-4.177551043160428,1.041196407367803,A
-7.777527525358791,-4.45804472469909,2.3940959064342793,A
-9.892777034407114,-5.037330687449396,2.149686533519625,A
-13.722837508117266,-5.800250282229014,1.986866674441805,A
-12.896650787285338,-4.585965660436608,3.0569292877251737,A
-11.2590197241977,-4.4475649513189754,1.885767986338783,A
-12.013361913255837,-3.707218496140385,1.9133227703082198,A
-8.26587746211333,-1.2980417561415531,1.241765620041281,A
-7.662147361986158,-0.5470148517088259,1.1730862226959076,A
-6.703173764180689,-1.7267504731105374,0.3327179873824671,A
-6.504455010122367,-1.9819512652640516,0.44752473163187745,A
-6.953715193726867,-2.493835403439791,0.22386507084193766,A
-10.853991328522069,-4.076350765175786,1.241658576647354,A
-12.580568242063542,-7.519165270378811,1.5121756822208339,A
-11.669382235520859,-5.370000357869439,3.1769980408749934,A
-11.224927029588438,-3.964551991126935,2.566344385425016,A
-8.325545694797423,-3.6644819203947874,5.455673390659858,A
-3.385258635601531,-7.139764060519601,1.6834875814930896,A
-4.073387956107112,-4.115104525794461,3.0580541496212312,A
-3.112181411426979,-2.1459149062208533,2.306932655825274,A
-9.20774145415945,-2.7315524109576366,5.951526319492079,A
-11.855055226471293,-8.400199608595567,6.2007503752398305,A
-10.665526686488974,-6.763755691774441,5.236746982389288,A
-8.491763346424856,-5.281972322436975,-0.038178901925560005,A
-7.717305275389973,-4.055338523612502,-2.6552355010673265,A
-8.374946637249085,-2.552164122619489,2.057404199508436,A
-5.862515567481861,-2.2510251862198682,1.0551539930103013,A
-7.897189452507289,-2.0378461862091877,2.7359184393165568,A
-7.553986448985449,-4.179603677038148,2.5479245753853745,A
-8.70922586551547,-4.87770727430006,2.3299930488413594,A
-9.970372516544403,-3.0955199800101263,1.3813770153512603,A
-13.68863822724625,-4.662365825607021,2.109073589469158,A
-11.894141550175677,-4.123263751024025,3.158528122043556,A
-11.576535065512811,-1.923830546885056,1.9091500121116192,A
-11.879163112676338,-1.764591537684577,-0.019324118631042216,A
-5.129235708650581,-2.0281748634377603,0.53112429764929,A
-3.864602518403519,-3.3303499008567314,0.4541241336436628,A
-4.269445828454404,-3.241401950256234,1.0389549297999434,A
-7.486688230971229,-3.0450040156489298,1.8459437087702046,A
-9.932660476287108,-3.0132309722305344,3.1586377141821043,A
-14.574703875471284,-1.3175664298432552,2.0824704868565536,A
-13.209658519342124,-2.2795508841713397,3.4056343512889766,A
-11.447201042544298,-4.4727085394145325,3.478339541170923,A
-11.058391719299847,-3.7335324735359436,3.08830248852532,A
-8.715979584737221,-0.529788619497787,2.344394027098134,A
-7.017329782686242,0.45152840301810837,2.161012923478688,A
-6.707379905472832,-2.2334154975157103,0.9530839475319531,A
-7.0301940413920505,-2.27771713263251,1.2357588659507364,A
-8.332565611888281,-2.145216018365574,0.8177421401454515,A
-10.383591077397933,-2.0295148854517473,0.7672706706520133,A
-11.919131163117575,-3.7301727654743115,2.1288208749679067,A
-10.523044101817067,-3.1061030833205905,3.834359863893694,A
-12.894933356184485,-1.354958679936407,2.518533297655646,A
-9.281768724474047,0.5174707508967342,2.3975783235085073,A
-5.3396708840532945,-2.135277503624349,2.787975883461792,A
-5.082168755166694,-3.4179807689624297,2.64320866866496,A
-6.400939559901218,-2.8698774288194406,3.137070706710522,A
-8.742908588081475,-2.265234992043913,3.5878400265519574,A
-11.121021927931698,-2.0805945443441147,3.2689903673342995,A
-14.043662937231085,-2.6256032344042635,3.5206753529714985,A
-13.59395479288557,-3.950481442943319,4.1286124590838,A
-12.667290883434605,-3.0273038060072164,2.2340532641817474,A
-10.654845941914163,-1.7022243598963092,2.1062990454398878,A
-7.452558851542419,-1.3904265410751797,1.4617299252997693,A
-7.657741661585265,-2.333564893017112,1.3299585650035821,A
-6.923104432219128,-1.9782911036989599,2.030235101880737,A
-6.640899276129524,-1.3023899495363236,1.7898574710453263,A
-7.560725863036464,-1.1505601417281281,1.4850573087929146,A
-11.36787250240712,-2.2570161650453415,2.8254967262546145,A
-10.48361057190783,-1.5989194083690763,3.580237324904187,A
-11.441139738945669,-1.058084782236865,2.7523222282418414,A
-12.482324098184503,-1.577893115180748,2.1729466658473098,A
-6.966586080146368,-2.5955157906841815,2.5902834183219245,A
-5.486828251544136,-3.3160764455060883,2.208966688148792,A
-5.9212410130455675,-2.9415241336351055,2.7804938020870744,A
-8.968666570884476,-2.8094781568299285,4.00729967483097,A
-10.581370902210338,-3.2938125227569146,5.008464743359539,A
-14.895070026427804,-2.3294506198248492,4.275419580870838,A
-13.617611500964768,-2.551754408895086,3.9264376412069346,A
-11.83378674666986,-3.057671613094219,3.27637005779935,A
-11.55687188654994,-2.916644145121869,3.239728700439318,A
-8.637949235056926,-1.0089806695873125,1.7100259395924766,A
-6.999508418344508,-1.2382321907556064,1.0656807992820763,A
-7.2308143761838,-1.8602438495137117,0.4621915551796916,A
-7.757129856805005,-1.8656683656226198,0.7317386878442935,A
-8.048569705950245,-1.392989426338049,0.2503831141646094,A
-9.549282766861888,-1.7640131006977446,0.644438457474593,A
-11.047997557000523,-2.5861947536414056,1.992902784538534,A
-11.235369684621999,-3.044091146567419,4.676647910524907,A
-12.980357448209213,-0.3471214175732299,3.187448333205248,A
-8.871635342317042,0.7212286037336297,3.0991803534061235,A
-7.183130668246268,-2.636114820891029,3.171146082503632,A
-7.147034209357463,-4.670188609664455,4.163630588502349,A
-8.815731975023793,-3.4624387217864827,4.392797586208786,A
-10.031330437459598,-1.9943531881019636,4.631828837964259,A
-12.377942836962761,-0.7474398168371992,3.461242307049934,A
-12.146322313736285,-2.8579858155762907,2.9350606316136423,A
-12.910930651531684,-4.415708464152777,2.421994099615554,A
-13.176592280858483,-4.040293307821424,1.376135812182289,A
-11.302526886945401,-2.4334397203973333,1.7279166777048556,A
-8.196873015932825,1.002329521239559,0.9643926935263697,A
-6.2150669071352365,-4.208423022861231,-1.9188988817086121,A
-6.397186020350241,-3.4571467008987273,-1.6556486288796493,A
-6.360602292335702,-1.5636411530987677,-1.1308831414149865,A
-7.7579230481332475,-2.8095021140346446,-1.8915670536080333,A
-11.568910563593423,-4.693177302615351,-1.7424131348806844,A
-10.286037679426778,-6.492379015078134,-1.5481046484701289,A
-11.578206223019485,-8.460509012356885,-1.2948274518583676,A
-9.159788183875063,-6.9255751316705645,-1.209633231839098,A
-6.414733967076794,-3.576737072059248,-0.5898291751228539,A
-6.484664046989938,-0.9216639858341062,2.894145999380182,A
-7.638943998524081,-2.5013404113236306,4.734412291474685,A
-8.915308398113224,-2.597767943354505,3.441420930191531,A
-11.525324227249754,-2.5539765550801072,3.4045495297227957,A
-13.250784355481823,-3.333070761250726,4.175612711621116,A
-14.352554976567095,-3.548659982762799,3.917754858006397,A
-13.997090479375235,-3.3201873620392175,2.4524523121794966,A
-12.949510244538573,-2.2781170217427156,1.6772218941692423,A
-9.038270616992026,-0.8759598943935976,1.1066100945695085,A
-7.437648854380283,-1.3147135940708627,0.3702084152634822,A
-6.744604239930765,-1.586656103765793,0.4481343631589516,A
-6.040565577047191,-1.4608267152151977,0.0370570446255718,A
-5.740996914798152,-1.11751269683622,0.10547333925640758,A
-8.150783534535378,-2.375807982461656,0.21795456119016388,A
-12.391665518554646,-3.4352812355494478,3.5610207625146586,A
-15.300635983152931,-3.043175593524894,3.6766784709085507,A
-12.983872251333992,1.0284883748276439,1.7945899639476,A
-8.509245883465855,0.4742666224971069,1.5874384842274882,A
-7.692604352612815,-5.477922886694932,1.9273651438200787,A
-6.826261732128202,-6.166719465316668,2.8749066278205566,A
-8.356799502841792,-4.970549072490469,4.004188849699769,A
-12.382159064987782,-4.007630651561857,3.7106504090138244,A
-14.79019923698631,-1.9039598607976642,2.9625172493409573,A
-14.098393070106802,-4.22247494863285,3.1530624602222,A
-15.559119199953372,-4.473196324533091,1.8655128629680997,A
-13.84397067173789,-1.9916153894789412,1.4021419067401608,A
-10.430787705959938,-0.9428971184401039,0.3133825724353403,A
-9.561290535687993,-1.258106397669829,-0.1808983966940161,A
-7.263855237539934,-1.5389668341893619,0.048134784479683404,A
-5.901555877507897,-1.146057769734088,-0.2763813660149926,A
-4.1340255972412505,-1.1379085370831337,-0.27650779481361454,A
-6.063167988897964,-2.242190945342882,1.334332124720553,A
-10.892294543750882,-1.7884582270664469,3.337544310666421,A
-18.246784434121214,-1.6947878413194835,3.0363071991682933,A
-14.137503776445527,0.1518608350910082,2.9024885014149833,A
-9.390090660572604,-0.876160671605394,3.708794728715946,A
-10.276162447917272,-6.110533589347456,3.8329633643524845,A
-8.639849498723887,-5.419996890286612,4.583739424107298,A
-8.895661089261187,-3.8829406238507516,4.706450352726753,A
-11.874287714741289,-4.315029920515923,3.254624939158446,A
-15.161027947644422,-4.291207477681803,3.0933485847740143,A
-14.233074119441214,-4.1807909905307925,2.4228266474134843,A
-15.77469640584683,-3.742002413224493,1.4864250539268367,A
-12.042268801471515,-1.509513947538713,0.6724295258648461,A
-9.975083507354293,-0.4990231525174231,0.6525775895586337,A
-8.076535082432233,-0.9241895452950071,0.08003083664698882,A
-6.691534435879096,-1.1692598013618094,0.5215815514197786,A
-4.376699207681527,-0.8981126730746215,-0.09866740012137172,A
-5.933756953388961,-1.3183468053847975,0.6815150535237984,A
-7.606971258274909,-1.920757783350346,0.4715748152314027,A
-14.142051993586287,-3.6669002205360655,5.028459716318842,A
-18.646796804473134,-3.3300371891541816,2.523192993353797,A
-10.143883940714572,3.82263922732753,1.6861331700689026,A
-8.819527166709003,-0.33981780993336097,0.9274286812338776,A
-8.764067925276033,-8.444395352167684,1.3377215462525915,A
-6.71690082470846,-7.227446801114705,3.1535662340841655,A
-8.42279904592953,-4.8706240411712445,3.8422440126758644,A
-12.636945909352146,-3.9560993151350563,3.374049920479739,A
-13.96647788738632,-2.157587914629033,2.1171990233831375,A
-14.194531075826825,-4.518281255543053,2.6172712103575724,A
-15.716648961244124,-4.979172247109412,1.5284304764914738,A
-12.92367012439205,-2.4389737204773896,0.5246685211183816,A
-9.737466082795317,-0.5154684692140099,0.12143701990654368,A
-8.989962180477137,-1.3136840387222133,-0.004748059065048011,A
-7.121227595833175,-1.7492192104511044,0.6709490189096196,A
-5.356334165545704,-1.2711386445335604,0.09121306066563398,A
-4.498950902037346,-0.46574488785658164,0.28336326712138576,A
-8.123933865036369,-2.590459785869686,0.7930999956923562,A
-13.728092202339377,-3.237613843954157,4.5843412033996085,A
-17.263329429391995,-2.106486399778012,1.327070871255169,A
-11.983296782442768,4.338324013634403,2.370674505954755,A
-10.231781257261792,-4.01250790005554,0.9561865071121289,A
-6.889199518064301,-8.853463006112479,-0.8740088363005833,A
-7.078799891475516,-3.885262342415474,2.446547570579397,A
-9.348465287780742,-6.4221824516180055,2.8427012921238646,A
-12.44413567481134,-4.314785914176869,2.345430085470969,A
-14.297171379950901,-3.6029119964064256,1.3074689104544577,A
-13.120779466654724,-5.631650870835603,2.193737200055346,A
-14.914201218977848,-5.445730971172203,1.1337011950874465,A
-13.056456311386144,-2.44253968826383,1.0010371940076515,A
-11.011320893324644,-0.39948809405454666,0.16104687630457487,A
-9.829737433348678,-0.23568608879684255,0.30435942294236223,A
-7.481394564863393,-1.161077835428576,0.1224573333429502,A
-5.136607858986981,-1.279222695305619,-0.08063141325451174,A
-4.482373401736467,-1.8695766996265046,0.13177734381634068,A
-7.056494615442978,-1.6904078484442242,1.0313360649064733,A
-13.318693412819567,-2.842162136944593,3.7704998734513007,A
-17.675591352126602,-1.0360803713697848,3.4589768458784302,A
-14.364712071164561,1.083504254201453,1.9047320198178954,A
-9.124130329454978,-2.0017368522666117,3.7993699162094674,A
-8.331755689127913,-5.812687362578906,3.2046343393244388,A
-6.994237206522644,-4.628372853518723,3.6316112544020918,A
-8.711675673068196,-4.51385214278979,3.970914610502985,A
-10.531049879204154,-2.2606632225736845,3.8039893560603284,A
-13.408122262133894,-3.3929798826700264,2.180428415107454,A
-13.494961547318923,-4.3020179171063635,3.330053011169875,A
-13.714183709917497,-3.9564365198010933,1.9101962062764615,A
-13.66278550241541,-2.9568878866631527,1.5617675610051238,A
-9.807473087878234,-0.7572384725627544,0.9303148451356444,A
-9.378378324263961,-0.0340215681850947,1.629391812770157,A
-7.868894171710619,-0.5770630325388202,1.240392453588851,A
-6.35858678151986,-0.8369563439703127,1.0949446137624723,A
-4.810819117087899,-0.5485465043870389,1.048086403154276,A
-7.257506531723976,-1.1242778265406455,0.5986155228449471,A
-10.283878770150757,-2.7515133162780305,3.060479224715944,A
-17.651519470176048,-3.263439267486813,4.136949802065593,A
-14.321135631630717,0.4731069442716155,0.4921166532785704,A
-9.687093815493121,1.8708769192259722,2.150371117787926,A
-8.949397201334442,-5.6131498799185895,0.8604874413824517,A
-7.66759190390454,-7.597544035948562,2.4544476311167696,A
-8.103451289545587,-5.320225927896899,3.1070165601815365,A
-11.769278571076134,-4.021785228904269,3.4643994867833228,A
-13.060710352304868,-3.914579760843222,2.0113817039686435,A
-12.761941058610217,-5.2554861638962205,2.8966905983824023,A
-14.452908803384657,-5.191255769252666,1.5899132777200342,A
-14.659234984872548,-2.908809118817495,1.4960396721774762,A
-11.456087960363037,-1.1708588336875627,0.5254070943404348,A
-10.44351430652731,-0.4253847505888464,1.4132299287734353,A
-8.333315590307608,-0.6522068008788695,0.980727911438305,A
-6.32895669727474,-0.8974572654570773,1.6815416496034852,A
-4.419837021605334,-0.5845153356897003,0.5218436994058303,A
-5.959337824344432,-1.1668721786426695,1.4867473166871423,A
-7.4085730015104945,-1.9631719678658404,0.7977256933288316,A
-15.468949922113985,-3.2251118584012124,3.7727685540496467,A
-16.412176601487086,-4.651292370867791,2.620113727911468,A
-9.74134902469797,3.212914768522018,4.574757502263837,A
-8.302861410169365,-0.3169096726659855,3.408489180829908,A
-8.077843215782917,-6.8295034223177895,2.9747597418818383,A
-7.948429902014032,-5.608393917719449,3.7711780261295096,A
-9.378572822263543,-3.867997084468287,4.277177202018554,A
-12.409601943191001,-3.1689586973872395,2.3269927024015837,A
-13.78878488182166,-3.491933353699291,2.193102944893108,A
-12.51822104019526,-4.159342731006537,2.2457139989807398,A
-12.83916604154569,-4.016705417257837,1.8911605921248993,A
-11.671656895600096,-2.4699342853846327,1.0956674493381597,A
-8.656056344357971,-0.35969254009821566,1.2664869847379463,A
-8.131336919629398,-0.5572234629339627,0.6433310022247828,A
-6.591393107224674,-1.3213722023256496,1.1452219096747982,A
-5.949267800882185,-1.3291682432260643,0.3347708454941066,A
-6.522528661521472,-1.3749592354872335,0.8010224991260245,A
-10.032693377332395,-2.2934491327789726,0.936787766845273,A
-12.368202100860888,-3.2194085197357736,3.9863988041415177,A
-15.84029129840183,-2.4051850868313585,2.589077213698458,A
-12.62184334769553,0.84576628207481,2.4013976096025687,A
-8.010094982218032,-0.9467615653158941,2.8722295123679316,A
-6.186607832031122,-4.736422789494865,2.6168626263673858,A
-6.155596328257995,-4.140152651915032,3.236353078516507,A
-8.039765172177459,-3.2854975942897573,4.002949744540167,A
-11.70281560398956,-2.250330626146003,3.6332197164097204,A
-15.455109058870788,-2.878036165003471,3.26692584738753,A
-13.028599911045829,-2.981593113366392,2.6685616554850142,A
-11.388517711783878,-3.4028246452561715,1.8354434646135882,A
-11.212991979976442,-2.9210246331113088,1.585922085949316,A
-8.004774955025203,-1.0372345841911077,1.5026510600147371,A
-7.306659541884943,-1.110223663557327,0.6816091963786725,A
-6.793145308524103,-1.4050014892965217,0.7756965974687331,A
-7.178100166106459,-1.3299841272170272,0.4995831179741582,A
-7.824014073653662,-1.2759876507534518,0.7775161711946006,A
-9.55038406446662,-2.2139635000288287,0.8195998554309588,A
-11.602618937780667,-3.481886379853968,3.9341416873030757,A
-14.755350331674336,-2.6833666554149547,4.576977960369452,A
-11.36090444092638,1.7858985396845144,3.1070612532542192,A
-5.848146931524725,0.058149193556592794,2.694770606185885,A
-6.296358267435894,-4.721721852478825,2.6968951188477717,A
-7.57919436928338,-4.79927337299514,3.953384059075895,A
-8.50577055585122,-2.9964689618217624,4.420984998726203,A
-11.35951699116104,-1.711913153981749,3.051269286052115,A
-13.522460110054269,-2.325139830824883,2.5822370847921037,A
-12.993410374352104,-4.082859838041985,3.4193891240088528,A
-13.237618127684652,-3.6245764917828063,2.162308511577529,A
-11.132914636696857,-1.899040995302188,1.6800383899479874,A
-7.432735549017949,-0.4061242026647888,1.4721032258556463,A
-7.488147466589082,-0.9291034448807826,0.8839629340382144,A
-6.611936275645712,-1.2007124946750372,1.3491829057867886,A
-5.698868373817161,-1.4004428467926355,1.1869044501660893,A
-5.601047155899977,-1.2813804860839157,1.1015911058370558,A
-9.717185802363987,-2.14536450194954,1.732394847565459,A
-14.448960406147444,-3.0815134699380433,4.202914278792307,A
-15.3520623234846,-1.7633311881156326,3.2181617648331016,A
-12.043060655547778,0.1170173031987517,2.0353723972789983,A
-6.353717179563771,-2.3474179748734056,2.427842064053244,A
-5.781831650183418,-5.056169270979046,2.1523286622350173,A
-6.8025449690586,-4.264596576907319,2.7902820744391055,A
-8.988431593089135,-3.7473164449118608,3.528735838255199,A
-10.087703462497176,-2.351729355163276,3.1877312406315985,A
-13.407604700981432,-2.611613126184616,2.479318330927175,A
-13.62917519393002,-3.9376318718686245,3.0243004326356955,A
-13.103896380452406,-4.351045372364234,2.181161401607528,A
-12.63459046851637,-2.974078302802781,1.646062139777314,A
-8.02055128043935,-0.9010318223039818,1.412126526303408,A
-7.769922744957531,-0.8586086341594293,0.9464827417076032,A
-7.510119023314008,-1.3312417626627906,0.625612388822878,A
-6.7317610750132735,-1.6379901317179288,0.7517297286172373,A
-7.020031495366249,-1.4760335135141953,0.4695335653384547,A
-8.938986621744894,-2.120978456438717,0.9605669014042929,A
-10.430269919210954,-2.7326219804713032,2.7111744629350385,A
-14.721735409101841,-3.284839662193077,4.7298492700250785,A
-13.043290409281838,0.6611158681585002,3.1308874520992855,A
-7.214589618438184,1.1146123393692502,3.534495824480928,A
-5.968678116670725,-2.968712800699484,2.3955944829414726,A
-7.426990052967643,-4.509064007237941,2.8902576913474913,A
-8.079796184270592,-3.5232531301188668,4.12147366697006,A
-10.092526360658974,-2.9045560531734185,4.460916945974246,A
-11.598840575288621,-1.915795549779998,3.24492711928981,A
-13.462225144395823,-2.591332468191668,4.645399135350817,A
-12.376166106653567,-2.820432975457229,3.681939244995577,A
-13.452813978116636,-2.713891798941445,1.6699842662933118,A
-11.032117224142194,-2.5880995981487818,2.2970798158730292,A
-7.003297256763196,-1.3105844378780918,1.0700084177387825,A
-7.610609763803997,-1.6607263601369004,0.6948340662452718,A
-7.592087429024549,-1.3011650536705741,0.5055573836887607,A
-6.819899138241084,-1.3407437314347574,0.7020685779574346,A
-6.893921688273637,-1.6478024584130557,0.3000576128804468,A
-10.2697137412957,-2.209202377936892,1.7399415098501856,A
-11.388535584432628,-2.1500439390112485,2.7430000642625725,A
-11.62993143817139,-1.9985299712571392,4.074845557659643,A
-13.099447204921626,-0.5291924998066294,1.867261278048672,A
-9.042362409124685,-1.174209343303659,2.9869526981941794,A
-7.355036073993992,-3.8260348181423796,2.9780902052246927,A
-7.691485151258786,-4.157553631303507,3.272949760872377,A
-8.931721951527274,-3.213556123806381,3.8209229344500293,A
-10.226388928179567,-3.032080110380929,4.046843376804643,A
-12.510457979031777,-2.585862869447976,2.2304948746547266,A
-12.827157421467613,-4.1723996398291625,3.170138569908577,A
-13.535527233365944,-4.61625452719521,2.483108313034364,A
-14.397725798861755,-2.9821275666533005,1.5929878260472712,A
-10.46355788365433,-1.3262460431282124,1.4469997026366344,A
-8.05177732202335,-1.1030743048116285,1.3300403059049835,A
-7.539486110564672,-1.153041737196797,1.2468549341778428,A
-6.14035847398417,-1.1893990223180344,1.8796130349498983,A
-5.412157821316566,-1.0471849791196637,1.2935012940384352,A
-6.546900350957191,-1.3403376335992647,1.8140983256737522,A
-9.581894587035874,-1.9631672191242369,1.8641398275376104,A
-13.22906025068559,-2.837907381772366,3.8519063889363117,A
-14.511155698148782,-2.8500898341655496,3.6328979608035765,A
-10.751603123519113,0.583988113185794,3.859861767021405,A
-6.601835546675976,-0.31895077198180816,4.288026953989703,A
-6.3209428862560655,-3.9179694638877516,3.382616664301907,A
-6.6036294160469176,-4.076257352119292,4.140342666759366,A
-8.941787371925287,-2.9221624541124758,4.447173778143985,A
-11.572308098713231,-2.057238882993766,3.0969618900245535,A
-13.02277583748399,-2.960149205507339,3.15410101543312,A
-11.791591225317042,-3.7376422128502305,3.4811067352372738,A
-12.431426015189404,-3.5462472149850828,2.534099345806062,A
-12.041009983027338,-2.3566201967481772,2.6616490767181458,A
-8.363604535040322,-0.6892568374994281,2.431840529927841,A
-7.528429268554562,-0.5946510737577706,2.2418934664052186,A
-6.850587498528013,-1.0855277666650807,1.8323719208433098,A
-6.54687890157262,-1.1736091650288287,1.4338052793360807,A
-5.891785712447949,-1.148785765602157,1.2829275050546374,A
-9.457875894955412,-1.9981297983532846,1.3357229818663843,A
-12.846279644399322,-3.2415521035679764,3.3199610059431888,A
-15.93959483209214,-1.960460387589608,2.1663494982338434,A
-12.111893796025182,0.49790290834543044,1.5436107501515546,A
-5.891491240642614,-2.0786122699447542,2.6593117100663353,A
-4.578496908262961,-4.5784683889816105,1.921926888419658,A
-5.979271304596912,-4.190602358077275,3.0617598562795356,A
-10.230200467074193,-3.1760489009425057,3.388115295621688,A
-11.870447781068616,-1.976855200164081,2.886207048944174,A
-13.763174819771004,-3.0721824646027462,2.41421519067704,A
-12.95063392968924,-4.6379712871844925,3.335938720921132,A
-13.245500264057496,-3.5029476331211824,1.850347327493771,A
-12.239724179594951,-1.8174062431334572,1.4097685950258612,A
-8.501354752925899,-1.224577447085491,1.2503258850427885,A
-7.816052287792008,-1.5370681555638304,0.808191881970153,A
-7.707630271602833,-1.3755077308884827,0.7357192817148084,A
-6.740328342134485,-0.7984180157466015,0.656245355910596,A
-7.4437532364915,-1.0448651595079477,0.37938390960170054,A
-9.070098217723121,-1.9821242517552808,0.717089823089991,A
-11.787354620139348,-2.8057681081464882,3.2812937815100054,A
-16.20769947832258,-3.410878895319907,3.18239709989249,A
-9.896489067918433,0.32546969604839887,2.4133657053762283,A
-6.635697838479481,0.020667521495195847,3.0149039434025258,A
-7.4007591427819905,-5.301238639553536,2.603993671205243,A
-8.34049840752219,-6.39020407966507,3.99151472043995,A
-9.446484064568368,-3.7256338506479345,3.8133089191239296,A
-12.900110899643055,-1.5666354557837625,2.6980661079171115,A
-13.990678011507475,-3.4011092882161202,2.435440471296297,A
-13.291488876739232,-4.567431527939082,2.8213388475566066,A
-14.174806455132918,-3.6406175845585103,0.891419024149154,A
-9.417377332557933,-1.2589043875534007,1.4557659386194857,A
-7.427446664147744,-0.8785011881836702,0.95131050186334,A
-7.371920987661342,-2.0211872294637745,0.4284980434388361,A
-7.108322366874221,-1.788447524539865,0.36488690975409643,A
-6.445665244581873,-1.1255298398184517,0.4069662499723755,A
-8.770576731960237,-1.3527569139964157,0.5520586708547575,A
-11.365033289205517,-0.469884457461761,2.5808724479149863,A
-14.23148296909332,-4.0051062432301485,1.3704088260845775,A
-13.551174244255776,-4.465001493027333,0.7972032425735189,A
-8.177190341609274,-3.9776284463111207,1.0053239015692836,A
-6.001492959609275,-6.118280610340609,-0.6598274443331474,A
-6.842225795595163,-5.860091755189335,-1.03359483712057,A
-8.561811225527336,-6.574060925060105,-1.2091995033313063,A
-8.814986853469106,-7.245219308503465,-1.2252770350904962,A
-12.985433735233867,-6.638783214749084,-0.7052630002257836,A
-11.64159355624132,-5.808857465379976,-0.9964374006112742,A
-11.888544497712406,-6.118692570061222,-0.7321941847861368,A
-11.402647808505288,-4.722434322920919,-0.558315522217826,A
-7.9786960123102055,-3.596305852586874,-0.3731593553504546,A
-6.854779403406962,-3.5320571352547527,-0.610453523430175,A
-7.203107060997729,-2.7855755832954534,-0.4242893002266554,A
-7.104914845177069,-2.5163043677741315,-1.0924655806527896,A
-7.447248142148734,-2.2771620611639167,-0.9151635888121814,A
-9.601088236741779,-2.6253064101659045,-1.0959677390934974,A
-11.203235290552122,-5.356270544357773,-0.45559772862635806,A
-12.444699286033947,-7.0233644211777495,0.08767336602180265,A
-11.192316879251125,-4.070778254042467,0.24924544314777064,A
-8.2247560525659,-2.8691542999415143,2.128041636503085,A
-5.763128767948249,-3.094234766829822,1.3045427631097635,A
-6.354794749119349,-4.382266114961034,2.4206895432978324,A
-8.38185994225386,-5.274895660036417,3.858859683974074,A
-11.09954315773426,-3.2589859450982246,3.8727873023316226,A
-14.639345699896255,-1.2513238881116837,2.5423026011000167,A
-13.5436643579449,-3.1746855384797854,2.80798723268193,A
-13.17506401038246,-4.651771952471705,2.1842540487257542,A
-12.620143323038793,-3.3815037032261883,1.2131716699303647,A
-8.809019352692259,-1.289719180411421,0.837280008526361,A
-7.938126498351218,-0.9801453983511952,0.6474139166343783,A
-7.403156091172634,-1.4454660612074175,0.32379015713038956,A
-6.343531580685531,-1.3649512957851624,0.2571554524492149,A
-5.070176709007796,-1.3558466512962732,0.24372432729794166,A
-7.772427508371073,-1.9788937353478124,0.5488244004391107,A
-11.086141397589662,-3.2389454810158904,2.9117652577159596,A
-15.789854716357564,-2.76237464474242,3.469802132157992,A
-15.04135348811922,-0.14861459686926057,1.861125201641007,A
-8.779773574661382,0.18653205808650403,3.0561509026313036,A
-6.545374957399111,-4.17451343994575,1.6482812743169621,A
-6.424972145337497,-5.313276480113582,2.4621488455609684,A
-7.943205857400434,-4.2572270109694355,3.243359494648815,A
-10.159898272038534,-3.62780105700254,3.4181322731999373,A
-13.607686158128361,-2.7333352453262383,2.4095229426643905,A
-13.510494848287761,-4.252744446048891,3.4777250357104856,A
-14.526564537221809,-4.249736627100728,1.8677262955238831,A
-13.870244290347044,-2.3085277688700714,1.167300167635814,A
-9.944165072106077,-1.4200717587701082,1.2758958339173694,A
-8.530148359848354,-1.3113975804354776,0.4866841697367093,A
-7.922202442805166,-0.9018419815624598,-0.0667075608445755,A
-6.653086100638312,-1.04141959946257,0.039611874995061046,A
-5.1003934246365175,-1.180827756276451,0.3132504283291853,A
-5.951819405657195,-1.6489269352841283,0.18191536156996,A
-10.298937988272566,-2.5556570185894927,1.8728429770013015,A
-16.51790207956223,-3.8821755753461638,3.8612213140711544,A
-16.341958632898905,-1.5665072937775222,2.6874961757431888,A
-9.038280796458684,1.1602158871068073,3.0405671342347733,A
-7.751163424406139,-4.300716276922315,2.6889988556734403,A
-7.911065479845841,-6.466261884154063,3.3715265752485637,A
-8.214550390317365,-4.7804389497842505,4.124978919229414,A
-10.707572286725602,-3.358787009220322,3.3604628512933097,A
-14.137279460649976,-3.2596144779003824,2.4114711395806547,A
-14.828264032257,-4.027371867545002,2.4817436440576395,A
-15.201680620252251,-4.2781926271134445,1.3876930130401746,A
-13.599771008801367,-2.5829828698374815,0.6740789631558044,A
-8.926753274947854,-0.9638489780279044,0.5987515227696261,A
-7.768384877649194,-0.9561092139533333,0.12710137037598046,A
-6.9171112274905635,-1.3637395506299173,0.2827719660160446,A
-5.449167755506461,-0.6851451199409941,0.35230016644979373,A
-5.182950454324518,-1.0365990307373756,0.3834994475036066,A
-8.188646049703191,-1.8595813580851264,0.8328100822409868,A
-11.759171731274845,-2.7209554387781756,3.304165813024955,A
-18.579066406636027,-2.5944407778830483,3.39602230958856,A
-14.992637009524737,0.6319375495206054,2.861881483135555,A
-7.961429172992008,0.06891707406491537,3.4617715126463846,A
-6.518199372425267,-6.019093861267203,1.795932764355982,A
-6.502986097066106,-5.722118151070829,2.83447417305058,A
-8.886170557630214,-3.982953375739361,3.629386881414797,A
-10.615813868837373,-3.530385078770746,3.164509572765537,A
-15.299414550086496,-4.493797359349956,2.489256177900328,A
-13.66035694941001,-3.971413449475437,2.697378960377886,A
-13.996579368031876,-3.6630335518532946,1.9181535268490042,A
-12.641648780141441,-2.054963489963,1.694111491751659,A
-8.647682373247271,-0.30997257112414467,1.1023073181401777,A
-7.768806169339115,-0.8275831641508374,0.8380247271634353,A
-6.567556003838379,-1.1814230897771971,0.8539323755745152,A
-5.885882924324469,-0.9099979790957351,0.6896865883149399,A
-6.531295587969248,-1.0545098949141176,0.6943888687505745,A
-8.70616113010383,-2.024116882610224,1.2158710454069954,A
-13.558194497838013,-3.249244182548144,3.2403330750000046,A
-17.569330379278682,-3.125720966691702,3.7686835600484865,A
-9.881014141742963,1.1964957618843273,2.8623805555673716,A
-6.697191479413247,-0.39109591017346884,3.1079914795095123,A
-7.851545073697305,-5.692040741332965,2.6287395618238008,A
-8.328292917180868,-5.885858576453915,4.126219922440325,A
-10.110477518805295,-4.015323783753286,3.6876162562004455,A
-14.256457207969625,-2.8869893709421373,2.9850143556195934,A
-13.712995572298427,-3.346807537960381,2.737698487569183,A
-13.365844324073553,-3.8553842408507073,2.2782316270303986,A
-12.835794044097131,-2.933189567513136,1.5436474321199916,A
-9.140452672966104,-1.1797234103796026,1.5952652817955657,A
-8.008187091487855,-0.8458040836948898,0.915082024008587,A
-7.084174778391785,-0.8313704887742344,0.7166593404124125,A
-6.985730318604146,-0.8389530367444772,0.44025043929701985,A
-6.504752859926169,-1.1079092415006844,0.5413991893246711,A
-7.574397858127358,-1.9110519012069147,0.4858400407928035,A
-11.049033374843324,-2.970018775921162,3.0673978050914887,A
-15.858843817638187,-3.146659766392979,4.230645081929099,A
-13.784427148145939,0.9268129755763179,3.448861184044288,A
-7.754037420536705,0.19005159201188276,3.891570572777526,A
-7.052375834701564,-5.218857710690744,3.2173630292423994,A
-7.160843000988389,-5.472782657264423,3.4927825743257586,A
-8.335903769578731,-3.802676796177522,4.040429105792445,A
-12.40188525555078,-3.277993743620105,2.9698705966765337,A
-14.57417305067288,-3.3589768939056954,2.8786177263229376,A
-13.144023214166968,-3.547612611526889,2.116193703388686,A
-14.574030786219387,-3.7479423132287346,1.9014146766385596,A
-10.417573915345073,-1.628131803528909,1.6697878976679528,A
-8.414747632665941,0.023971346356680703,1.1569441875138708,A
-6.584613441681566,-0.5660575144349766,0.9332416770081461,A
-5.7105832750358205,-1.4244323810622423,1.1831696782326657,A
-4.694188566460293,-0.9666401569799968,0.5751730355561346,A
-6.5057550144060246,-1.3979217254498189,0.5189720930852927,A
-10.89359509332949,-2.55845193090292,1.2329045922251538,A
-16.728135026838288,-5.285600842807644,4.835438692499625,A
-16.19472328802796,-1.8699777967634958,1.8462995982035368,A
-9.615725295848259,4.214832407564065,1.9747220894623931,A
-6.226264222964018,-3.892892218311529,1.6221743601855712,A
-5.310773555558468,-7.4453405172184395,1.4824642620071695,A
-6.821094988545366,-5.346140126694586,2.502794356498449,A
-10.1897578092225,-3.981786997950341,3.4091038192046272,A
-12.471765899733327,-2.5155021924519736,2.399498259406609,A
-13.086634866605491,-3.318732685522537,2.9307336826280443,A
-12.570512202469795,-4.196802366768269,2.9946687129387954,A
-14.568899818220473,-3.8274861514362577,1.6083933382041256,A
-11.06579670727361,-1.652786543390033,1.6508499107484267,A
-7.168628456807858,-0.6400124936142316,1.4398003547356903,A
-7.0505446787528605,-1.258701126604754,0.8853349074823359,A
-6.84368259108994,-1.661970528242582,0.7222278536984102,A
-6.857642801558087,-0.816269509565511,0.5339130997815856,A
-7.970517328202103,-1.7943678570308332,-0.10222257080722869,A
-10.249152033329574,-1.5058839204394674,1.0402479232088884,A
-14.704761154932127,-3.665466579962653,3.0830614150290905,A
-15.111922053276786,-6.661808120202489,-1.0422069062002726,A
-7.98874302818405,-3.580703405767279,1.3984319685850317,A
-6.25636509095332,-5.1968364443900334,0.01194160072733162,A
-5.329631982022249,-5.0311876474637,0.03704210132545727,A
-8.477285150458753,-5.5048254952470685,1.0633394959013898,A
-9.22176066975376,-5.922949447792296,0.5786679737038865,A
-13.122812887336726,-5.7121656413402,0.5672770624185345,A
-13.222617045603691,-5.880596313917219,0.9541875204854692,A
-12.824904827309696,-5.530669027374867,-0.06992583409829926,A
-13.081865879354453,-4.515262905610205,0.037629797711758894,A
-9.302331621212698,-2.578930341060941,0.21050136812684236,A
-8.046963143232388,-2.1222764086239563,0.3780829847724833,A
-7.055362618875086,-2.022430505390864,-0.21286696832777802,A
-6.775316782601559,-1.4477290873564361,-0.20652618641290252,A
-6.4843775964268175,-1.7074110079223137,-1.0923411077745873,A
-8.425569092134545,-2.6230210484952585,-0.9983152473780336,A
-11.167553698096588,-5.095061873648854,-0.8418675409921551,A
-12.872925632801135,-6.530810311400896,0.5886334340625069,A
-14.055816974368847,-5.106426199809725,-0.11148165069041541,A
-10.161105547485791,-3.4348245056473377,1.6784033415924973,A
-6.281089753338639,-4.881910593374165,-0.1599495664401091,A
-5.297180646111142,-4.782797236532291,-0.2813844059306893,A
-6.946370386394384,-5.952562435390929,0.8912620220801853,A
-9.39473672550315,-7.194614501155436,0.7948083425731242,A
-12.248132150898034,-5.438949876849331,0.9259496431624311,A
-14.504901156530737,-1.876922283456831,2.8193995122076414,A
-12.587654368025685,-4.015021002127843,2.0141924712958548,A
-14.73424555436658,-3.8687869381824833,0.9917839155244674,A
-12.072705917548769,-2.3057350336779363,0.8364111958926653,A
-8.976885866992763,-1.0660585544070313,0.9127692297211403,A
-7.983445445860767,-1.3926072335442898,0.06580820746909029,A
-7.479003638545564,-0.834623314693917,0.09387519163591014,A
-6.648503017945344,-0.8983737764740464,-0.2619097626019304,A
-6.75158695430409,-0.8695363141851514,-0.07807123912384882,A
-7.879018620423502,-2.2599690859246566,-0.22637436004286088,A
-10.356810438378771,-3.397846642666735,2.970791157538884,A
-16.739944598481333,-4.958683022116076,3.4956965874795665,A
-14.761372830048433,1.237602552761848,1.7517790003498972,A
-7.657208945112064,2.5842382661563708,2.9325221507663817,A
-8.211612544432676,-4.867898146339571,1.4187495487969832,A
-7.019102739830715,-7.203571221512579,2.4070372637211475,A
-8.169388002569441,-5.230790158531463,3.1533611255956635,A
-10.819209016389356,-3.59852444052313,3.326555312495894,A
-15.283661524449705,-2.759247666045607,2.134826390308599,A
-14.690863788617028,-4.09477972991142,2.3517938709262944,A
-13.522578674740231,-3.6854039117938306,1.2319789191245112,A
-13.516122244156469,-2.7364149337354253,0.7504955839927216,A
-9.228499796250556,-0.9846481797946797,0.6371605268249371,A
-8.019290453529944,-1.1617621059457515,0.16905027957041904,A
-7.04525470505232,-1.4997750248676056,-0.18893611047127393,A
-6.49520442493833,-0.8881452163396218,-0.524543564757835,A
-6.249394641197303,-1.3853387331736398,-0.4450182892286948,A
-10.369665087989526,-2.937485706552117,-0.8435748383869611,A
-12.567411239240347,-5.434129051159143,1.8767530577508709,A
-15.194700996074134,-5.753412850862315,1.8254914932964401,A
-11.693097989403912,-1.5003646503060206,0.7783933000753178,A
-8.472300319062994,0.5077968697289704,2.653381279285618,A
-6.97714770565341,-4.091388973959308,1.5734101499344575,A
-7.598449906686155,-6.1904693880192685,2.893468869879298,A
-8.759066900267078,-5.180741124257098,3.1360732576788544,A
-11.922005724986901,-3.3328012992205576,3.196848942938054,A
-14.784927200212293,-2.9681712461610803,2.850141526214952,A
-12.286601452184623,-4.000116646452797,2.6715110473119115,A
-13.695482131947537,-3.921068888441519,1.231099211659241,A
-12.302678415932508,-2.4583337811590513,1.1952144676773226,A
-9.70195572573457,-1.1603768905441334,0.5097880668567598,A
-8.508506328701998,-1.5540004291058016,0.2767240977947757,A
-7.558601549624303,-1.1604246440540427,-0.09701710410660366,A
-6.579027479998356,-1.3322858658087593,0.10760862682239937,A
-7.273865908934415,-1.1440957550815554,-0.09865569985754298,A
-8.825530498159196,-2.0832658638955643,0.25313104986596,A
-10.968140013441301,-3.2409455096186064,3.159092752375644,A
-15.171074066604273,-3.4683150325192353,3.5504461945348247,A
-12.161612630117434,1.6831315736634007,0.5246484395212662,A
-8.269377859296187,-0.11216399627789582,2.097744574046143,A
-8.1221576829314,-5.466452279010168,2.178176313319554,A
-7.306719274832969,-6.375783866137328,3.2547256733699514,A
-8.812217900967742,-3.8009034314731123,3.5021626330629543,A
-11.176679395145285,-2.62821061783062,3.0441943095211528,A
-14.609200000348071,-3.229222352504287,2.162567163067007,A
-13.108870481852986,-4.3014014509372,2.848022476332524,A
-12.284491567729436,-4.067698304078158,1.4663741622339272,A
-12.508894599163819,-2.8917498148289567,1.0454717104112115,A
-9.44505200862081,-1.3223825698316134,0.8265694953690575,A
-8.069244770473224,-0.8780221995389063,0.6041175328563236,A
-7.348827125100255,-1.2208357440061894,-0.21844060332516912,A
-6.311195464777887,-1.562440611043293,0.26052134648487857,A
-6.909995054208636,-1.5461274612113114,0.09212950747743569,A
-9.85904611648788,-1.82940084913011,0.48688717406902854,A
-11.337680079910857,-3.1601606544844576,2.7355154747192625,A
-13.868316602072888,-2.9564456606368257,4.00494120874801,A
-13.68662769781162,-0.12505608943525057,1.3116370336188288,A
-8.389769291900247,0.5020032544465438,3.0952692033147384,A
-6.765612202916407,-4.137717505969936,1.854132780301785,A
-6.581099560853162,-5.784135764587069,2.533994731334335,A
-8.141653377205524,-4.0719151555017685,2.8847391764997337,A
-9.819029853957229,-2.895854701251179,3.3041469338938483,A
-12.901647431544419,-2.79122834126839,2.357442344305358,A
-13.995059898930574,-4.00079761260106,3.109094777143525,A
-12.639282956556071,-3.588223130225181,2.441523688252226,A
-12.764010681584308,-3.590815127764551,1.6381391533114626,A
-10.986371801792867,-0.5760778724685913,0.8349149707798786,A
-8.429799546042393,-1.0846518325856935,1.0024112619179353,A
-7.4957600034238325,-2.1706863575852036,0.08063584602609979,A
-6.513168834770305,-1.8330098232034597,0.4815090783990188,A
-5.982151730969285,-1.8767743911995163,0.28795046660990387,A
-6.780481208094065,-1.365542869819782,0.5258548852996092,A
-10.95563152543151,-2.70055228188472,1.2002450958186663,A
-12.280020175708184,-2.9088684044094633,3.446109850087789,A
-12.868794995730807,-1.768000058283197,2.539458040875435,A
-12.713464224109451,-0.3688855007975658,2.062384520189254,A
-8.045123862546504,-1.7191525132381675,2.52418922571149,A
-6.641953147803213,-4.072014713116636,2.372821369579333,A
-6.537475970661185,-4.215429998749032,2.8754998119115447,A
-8.703014140184285,-3.439297478165808,3.7058634967350357,A
-11.289450933157772,-2.443309413460785,3.2262544009887257,A
-14.775194601183811,-2.4961133099900588,2.853454209641003,A
-12.455082604433413,-4.042161297199786,2.8940715156581107,A
-11.547131896507617,-3.5728699497923273,2.1070409885138326,A
-11.143454322445848,-2.682991474591026,1.5305510159240974,A
-9.053997837122965,-1.3776437592198851,1.3365642991129851,A
-7.706043537333022,-1.2854281092364739,0.49277572434196987,A
-7.425410699430026,-1.7055694932805756,0.2425530168088882,A
-7.005298219559148,-1.9518325531064373,0.27777803505782767,A
-8.138561183292968,-1.5218724623760023,0.3694745453465813,A
-10.021443617013876,-1.958045315132083,0.3897185320005162,A
-11.121285193849966,-3.0929389064728974,2.524602265684854,A
-12.920456590908898,-3.2079642363383183,3.397330414498591,A
-12.333399269482829,-0.6972353856675242,1.6663435320161224,A
-7.586852308294389,0.060761294288698094,1.6279107736664369,A
-7.153199808945969,-3.550638827557803,2.0974950400669803,A
-6.85184663513393,-5.0219894517178805,3.1217745414211198,A
-8.006978275283803,-3.319888831771554,3.752880432108946,A
-12.129094062358064,-1.4569411639003733,2.7288245426030935,A
-14.750933816249283,-2.412181361507446,3.2880987198034517,A
-13.35642299872919,-3.6960255019910018,3.084090639534102,A
-13.772307534386112,-3.3159677414340476,1.731583822197365,A
-11.639293274753523,-1.886854852074867,1.0867547835006433,A
-8.031792994866255,-1.3508216836248113,1.3635706128250455,A
-7.4031975332693785,-1.585739512666544,0.3523639919580159,A
-6.735970317184218,-1.5591472531118515,0.40299896537935836,A
-6.583992963307477,-1.0497272048422506,-0.06295869546686537,A
-7.569112548726955,-1.264689987112498,0.24907130757408671,A
-10.041858356324715,-2.235162902281715,0.47245745146509194,A
-12.830256082156385,-3.941908765038343,3.8228311205037806,A
-15.326292218785156,-2.280916022227447,2.3957934594543544,A
-10.43639679121302,1.5005324558904025,2.4055369465536374,A
-6.3204488975035416,-1.1329262288741646,3.515539369402864,A
-7.167039013470118,-5.543426499237787,2.552924481181513,A
-7.817344266850684,-5.4760422757671305,3.709529890498047,A
-10.429634991808268,-3.9772828171275956,3.8995496265415377,A
-13.483602242947608,-2.7785097299948744,2.8625458626179077,A
-14.251261295970496,-3.7799389818034492,2.444713073570925,A
-10.429375619055584,-4.301638416591178,2.641129151639063,A
-12.438196723528076,-4.484517617256553,1.8680969786695558,A
-12.188238354623033,-2.335185657969034,0.8735135848766269,A
-8.570919345343869,-0.11582275923763295,0.8390591908290369,A
-7.2430748142014885,-1.2204129951358023,0.7032176018184476,A
-7.082377633962445,-2.1336791019905594,0.5354080823638424,A
-7.339810947941417,-1.4062557102565694,0.19228349791784502,A
-9.679440485053215,-0.9448462667499937,0.12125616793110691,A
-11.726773534982238,-1.9198197214540387,0.3243531653334394,A
-10.186730009199115,-2.6008111384277055,1.9688363298567504,A
-12.69166695922514,-2.9386392407325386,2.9508800573390475,A
-12.291635370036637,-1.0322661335803658,2.39055237700463,A
-9.462369905474917,-0.11243918410428735,2.4881767564544366,A
-8.2204210999787,-3.691656026827293,3.193375065171497,A
-8.621472950305316,-5.244719065255993,3.656583826269483,A
-8.711804327989618,-3.009567984466607,4.2015834752390715,A
-11.146514900774108,-2.656061597636434,3.4216762415018853,A
-14.081989544836475,-3.367019368890924,3.005331499421862,A
-15.576172179455362,-4.1806203919252205,2.9243869032355816,A
-15.803888306817631,-3.3535426257915777,0.9530352715247496,A
-13.871853649784937,-2.078112816000986,0.34716433675025477,A
-8.931203189287967,-1.5370485793590134,0.801557802271459,A
-7.775195067297134,-1.3873314262585361,0.08132657677823334,A
-6.573394668109135,-1.1096928909240062,-0.2352135293579827,A
-6.469213432042364,-0.8534728166956015,-0.22455190772498076,A
-6.140895654551782,-0.777538224144582,-0.06837590518608186,A
-9.477612473616436,-1.8643542152422716,-0.3527088136645271,A
-11.43456016830261,-2.7040865205837044,1.5740793906942965,A
-16.71556001361249,-3.6217611766299527,3.773956742500323,A
-16.213509828126597,-0.8309669769032539,1.2430198871341638,A
-9.65081711934502,1.3845014433015792,3.084247975259424,A
-8.895487442818945,-4.083024463430646,2.2459752030077964,A
-7.365620139862146,-6.635429551765481,2.9670426535025674,A
-7.568844433991335,-4.738243336833071,4.09045058328722,A
-10.45984041068326,-3.5079407186298535,3.507280078436565,A
-15.850029817480776,-3.7102725398612204,3.0634085492056693,A
-13.954462670134596,-3.912453724562983,2.6502485075111974,A
-15.099731143425068,-4.101461123903057,1.1556387230643674,A
-14.223507531884959,-2.422875388148006,0.5306302412119902,A
-10.51207241952535,-0.8488174446727306,0.49507372553941875,A
-8.807697954995914,-1.046173162705866,-0.10454282482509453,A
-7.523533012203903,-0.9893978564300555,-0.3341086681038385,A
-6.3088660157327805,-0.8453620179810412,-0.4383990987348093,A
-6.2754877282790105,-1.0245957939460242,0.05926818082196964,A
-8.609594867663176,-1.7739156492465964,0.2913710056653979,A
-10.458906228761427,-2.4128989092766178,2.104430603187088,A
-15.480948468174079,-2.2120523691148395,3.122784815684498,A
-17.41244547761327,-1.0056972656280025,2.0799552419394973,A
-10.64861619098237,-0.25459810542547,3.506669048210969,A
-9.76893746920229,-4.9006255405105295,3.5466323300046447,A
-8.17381698245803,-6.199797829681857,3.7491324217139157,A
-8.877987485183791,-4.553997072967484,4.934639225663272,A
-10.328013385183105,-3.4257318737257654,3.3821813406394057,A
-15.063184477012825,-3.568897909503517,2.5019765596297026,A
-14.713058660135463,-4.1913393367998335,2.4731397272159295,A
-15.876883747540239,-4.199514748932702,0.9654309568427288,A
-15.605002686577786,-1.868359635890805,-0.01723604989175659,A
-10.391236524960267,-0.6911852617871995,0.6293800287928611,A
-8.58240281313092,0.7180809836258923,0.028196747690343377,A
-6.510532278964935,0.6613885800831517,0.5032499936085645,A
-5.536478314301073,-2.7366963613942183,-2.0371604167155177,A
-5.577569430811589,-1.3187705091560638,-0.1321381098722523,A
-8.254688107396174,-3.290374038717671,-2.2890333668726623,A
-11.749009667897534,-9.002881091827073,0.2155147797366477,A
-15.908614531017045,-7.450720670571016,-1.270126195426227,A
-12.071847365267727,-2.785664034555766,1.5293044937559408,A
-9.392826420949298,-4.384583542030984,1.1357191966413045,A
-8.649536643668876,-6.486836362374946,-2.3460211711944106,A
-7.413717005520727,-5.9012301949438,0.2934867010798054,A
-8.479332080928302,-4.908782190399247,1.5623121504820223,A
-10.882386620837861,-4.558291629293933,1.8142603010951757,A
-13.5171498636555,-4.632071874501746,-0.04573503875055545,A
-11.540280871154929,-8.344323842469887,-1.229568092596471,A
-14.178503562109379,-8.286222367422338,-1.822604598448033,A
-12.541881098150968,-5.62882165794369,-0.8688875772289034,A
-11.013185402718735,-2.5689619150688263,-1.1241742858580914,A
-10.322603259987487,-1.8347242009938018,-0.7447447460127887,A
-8.5279025373684,-1.3963202946997697,-0.825286992229377,A
-6.950876665267078,-1.3222352845698297,-0.48294126625374845,A
-7.271740144525299,-0.5710147617946129,0.23109291419381692,A
-9.767381503848052,-1.7270416533025137,0.5278714530137673,A
-11.807572708628317,-2.998537222289748,2.133577637408671,A
-16.16452816895129,-4.361240671254123,2.791652293967861,A
-11.844589570133632,-0.9154552180273763,1.7048429120119204,A
-8.917045625049285,-0.5087911707736742,1.9184412867500733,A
-10.674171960891279,-4.3762999341283235,1.5510875294733892,A
-9.317340250336514,-6.070946783111736,3.2506429691965733,A
-8.850999155755156,-4.874527628338167,3.6173432879247,A
-11.163317187567202,-4.015062314363247,3.6210379195157807,A
-14.507881870244377,-4.042122067409849,3.3204948182477025,A
-12.560161414903053,-4.199952340792236,3.103657577738131,A
-15.421163885713153,-3.507946521105618,1.278211375898378,A
-13.988080577455358,-1.4859476059125643,1.0758588828132456,A
-10.851477619332972,-0.9875514433583411,0.45253600401357635,A
-9.890084051657562,-1.3636966863471056,0.017070342996425326,A
-8.256925489475378,-0.9337775440009041,-0.45802795574555155,A
-6.901471487947372,-0.9869549723149058,-0.3300481802791547,A
-6.838116764747538,-0.9139031310255231,-0.43140356667552077,A
-7.445008065234819,-1.7696994980190464,0.65866812333196,A
-10.117798974263094,-3.0885670704294337,3.26775219631224,A
-16.074889750142265,-2.079801829059982,3.3259212534512748,A
-13.954151616773299,1.2108197621865109,1.7588651221571847,A
-9.92947696860204,-0.03386568109789912,2.3161504345905763,A
-10.872115002646964,-6.366228069748869,1.3665760978500838,A
-8.676612445191296,-7.091385026025134,2.8844072670018543,A
-9.143374985496107,-4.334492423738916,3.81399800955654,A
-12.222155934667738,-3.671990972116059,3.441151964029577,A
-14.477149866561605,-4.322199142253872,2.6688476147744664,A
-13.585547258759389,-4.187417705015032,2.267515421551496,A
-15.32247733187204,-3.5371033151241447,0.9345485987291848,A
-13.306398969189575,-2.0646453938820644,0.7255126028951678,A
-10.390485354040905,-1.335214485181601,0.22132944120417716,A
-8.929695227124881,-1.0631527587356835,-0.04177115693240186,A
-6.966969757598801,-0.9276864107254307,-0.28020938587293365,A
-5.623116545938026,-0.6095835611998796,0.12136071939922488,A
-6.187791708199346,-1.2213420155929555,0.17166637608725635,A
-8.159837226416887,-2.388479119410901,1.4923324369617517,A
-12.484943197071706,-4.601505245984651,3.458398763964971,A
-15.642624155223432,-0.7164983084562926,2.2724518319023033,A
-12.64700347658307,2.2382317588552674,2.3108796727606014,A
-10.489027369930009,-1.7067091550384879,1.517703403881539,A
-9.160849598245944,-6.736514162140079,1.44998522423322,A
-7.762557684759523,-6.080841066371603,2.7624205358842993,A
-8.482753794391456,-4.801351986285365,4.040665380763139,A
-12.892864934184392,-4.925108767443415,3.0659261345175453,A
-14.149280234351039,-3.3113738623882605,2.83224140858464,A
-12.90725262781326,-4.390603258846898,2.6738436039010733,A
-15.276433430841372,-4.246466454017414,1.2741035512877439,A
-13.287942600431483,-1.2060773436848746,0.7725663365512853,A
-10.429683698115253,-0.8391664485972838,0.11066917033184863,A
-9.422369248663944,-1.296631985572999,-0.236927831957397,A
-7.9182605675830535,-1.3209212365398495,-0.3059762108721568,A
-6.267961758634878,-1.0140774729014732,-0.24598496678311688,A
-7.152149529116701,-1.391728169550673,-0.10219861536284468,A
-7.326649587919926,-2.1605476921333335,0.9916000406973164,A
-10.745164467426806,-2.9999718497822228,3.1074895443924353,A
-17.189921505459868,-2.6340013251544665,2.7818005712379645,A
-13.479025956884218,2.6380912332865125,3.6343748562654454,A
-9.228291878387106,-2.7374313959839824,1.9509943822158944,A
-9.38493120037173,-5.937895194143562,1.8443110972901766,A
-8.027269615865627,-6.9649819129011155,3.0520257367100627,A
-9.054695756769542,-3.8089400767874353,4.175747589273432,A
-13.066530363693865,-3.106348195218728,3.1898168721263573,A
-14.195138417342726,-3.1123401099859125,2.3493062915084812,A
-13.259031114533629,-4.423691936108309,2.122435045465939,A
-14.72836748880385,-3.9755686570746716,0.8996908589513215,A
-12.001331457843023,-2.1066337740495773,0.780700564962237,A
-9.152466482818093,-1.078886094852326,0.24627099905194552,A
-8.41294100353299,-1.076183850693798,-0.09854320278201831,A
-7.0735213622895206,-1.0628507150044546,-0.033183516923461547,A
-6.706365911627452,-0.7798167389916869,0.0024534398845611036,A
-7.865614477523721,-1.2461472590787261,-0.06296318559319573,A
-10.200129934591189,-2.698519841485586,1.2777730175003266,A
-12.375253342223345,-3.2988302128241846,3.605313769025244,A
-16.714505581639408,-1.5698191061910935,2.4301262713174183,A
-12.311018195462154,0.6489212790831967,1.3429331359058747,A
-9.050337961347076,-2.3310425568205018,2.394043585805448,A
-8.903250506581909,-6.854995909279094,1.9067145235565255,A
-8.472306931216533,-5.545921604113008,3.1992640302314865,A
-8.899239520498138,-3.517642990299749,3.56819805911885,A
-13.361813683656484,-3.9647029382292005,2.9628757313566467,A
-13.926952842383333,-4.256760699843708,2.806112932666092,A
-12.96845454724628,-4.622871310568114,2.4886238530781672,A
-15.753472893133459,-2.769097854059543,1.0958213698929868,A
-11.76265999992686,-0.46744518554116327,0.8335695111880146,A
-9.750463782459917,-0.7686728471837421,0.165245246889755,A
-8.53796118685013,-1.5888108238140737,0.10654048007123966,A
-6.87124578674468,-0.911671163663767,-0.11385767487933565,A
-5.779570357954055,-0.8484953308126154,-0.11853617041071732,A
-7.711423460197102,-1.5275021254410364,0.6941341582755519,A
-8.91236453175031,-1.846887659785495,2.173366024926747,A
-13.949975030289902,-2.2670893158993444,3.8594193365151646,A
-18.1701423461299,-0.9154120855628807,2.59827962017677,A
-10.421794455514382,0.6533964220225907,1.5357207230627499,A
-9.981236121863704,-3.294786853399057,1.352659130962584,A
-9.262887645008622,-7.77351671137807,1.0406950845918186,A
-7.687146551401758,-5.981396962562773,3.1537388130543706,A
-9.797020437752648,-3.891614808815661,3.1082921460280253,A
-15.098923937358713,-4.316126218031007,2.694055225172371,A
-14.834607840628024,-3.6009141029067697,1.9031683845748912,A
-13.717634164111796,-4.487924323235913,1.6670591214753172,A
-14.553939103575315,-3.193924703737005,0.6881438051018127,A
-11.636576594225987,-0.6076298069212446,0.15608448705509115,A
-10.083636236806282,-0.8385175604943071,-0.07260155431372739,A
-8.247277681233442,-0.8871990277221343,-0.01577859304239736,A
-6.8526663429823405,-0.745006380820904,-0.16253428896076688,A
-6.821321515026464,-1.0455756642481702,0.1857381548674123,A
-8.352224282901952,-1.4586313287220363,0.7094663450200202,A
-8.423890982662819,-2.1292184498116105,1.8886466257828254,A
-15.289808986327568,-3.0002950372799173,3.22135022948435,A
-16.377929874965098,-2.3683965963479503,2.4334667553939426,A
-9.535248672008455,0.3945283564490842,2.603929749688283,A
-8.931354091321584,-3.1928003959428484,2.8831284572029907,A
-8.624480020816092,-5.890291841900224,3.225779899219133,A
-7.984139054651472,-3.8840646161864085,4.911622178791018,A
-11.209420685125751,-2.5869147869875517,3.4814997820408564,A
-16.46412030215547,-2.746626819142682,3.1715493514765694,A
-13.263940206904937,-3.3559718177705893,2.026776202912289,A
-13.32027929306144,-3.599777240033196,0.99441055274514,A
-12.336584595362643,-2.7555763996928517,0.32695213284411573,A
-9.488629645455825,-1.1621904814026653,0.4208168821796246,A
-8.241056421427185,-1.5113277374617293,-0.32111724919018103,A
-7.222152264575481,-1.3975944198982573,-0.1494272640140934,A
-7.019890174366198,-1.3028212760910394,-0.02985516828271802,A
-8.69777817824117,-1.2028325664068078,0.1877407456208467,A
-10.179008453492106,-2.3232001442329744,0.3380468185462425,A
-10.219400894196001,-2.9854977160930742,2.8453434422214525,A
-14.215189976098321,-2.790773327580909,3.315330545790537,A
-11.356455229382837,0.39092094082390305,2.3392208108197767,A
-9.04543274819023,-1.3067639540715512,3.2310843003699214,A
-9.037614798635992,-5.683215543566929,3.343862275478439,A
-9.195483105956392,-5.199367901755168,3.9156038318063313,A
-9.201631627738161,-3.301332457105943,4.302134556174311,A
-13.771142004593855,-3.378230412990462,2.7860974914694996,A
-13.691960207282074,-3.8414163326341755,3.4831127779519173,A
-13.53609441051002,-3.6520326580636393,1.9304717759490686,A
-15.556915946337364,-2.8609591436258266,0.5962861592831226,A
-12.322850848006736,-1.6723643222396032,0.14782807210717028,A
-9.110405998368174,-1.4031297277854873,0.2750378315991053,A
-8.025230904844998,-1.77843746742937,-0.612115618067903,A
-6.763257562719393,-1.8870336098859466,0.022806466455355275,A
-5.987237840449376,-1.0930487512520233,-0.012483454675846757,A
-6.320095308102529,-0.8909501852488085,0.45325606490977904,A
-10.079138178257995,-2.0851350542475235,0.9185308132946437,A
-11.675416249507647,-2.8780248633091357,3.7640302630710756,A
-14.80429631114895,-1.3494535596286716,2.230496640549366,A
-14.505825595590256,-0.45624348062751374,0.9037806775231365,A
-10.74381353750904,-1.8126619876541425,2.4374131198139084,A
-9.667053489986422,-5.571899436860864,1.278722123842215,A
-8.09441074218846,-5.732481241606194,1.8927232056059615,A
-8.321950557973382,-4.1923938525659885,3.3941936481246997,A
-11.144706875402967,-3.6169791720253133,2.4486260887620643,A
-14.877478870002339,-4.277915940238043,2.5813527467459294,A
-13.015845188686823,-4.4456519194776725,2.1134550484530665,A
-14.343587368975014,-4.297058016720487,1.233734483962397,A
-12.546612349883425,-2.064299022310324,0.4100282667414541,A
-10.110085216546324,-0.9021050926986189,0.4788288712964344,A
-9.06107697905381,-1.308278876406285,0.0885878160100866,A
-7.819941899195333,-1.473902914802891,0.07487038293878148,A
-6.3964684998535795,-0.9529285026979213,-0.18213974511141476,A
-7.2974731170861284,-1.0773805870822866,0.018519828047023266,A
-9.256015573599699,-2.2493230635542703,0.4792883948700546,A
-12.300783533678565,-3.804918055089681,3.9074262038247136,A
-15.227016965561006,-2.743511328244797,2.7565688353368403,A
-11.215434586929415,1.5041469190675374,1.6200840443998832,A
-8.246151276512052,0.08304599733217051,1.576385282115667,A
-8.035404623762238,-5.625006604448571,0.09331184337228224,A
-6.829918401693696,-6.5613529924410905,1.8135253278140873,A
-8.490940312223229,-4.886650568016541,2.8711789025218035,A
-11.726341177379913,-3.732871007989944,3.088829390901547,A
-14.949895859017976,-2.5503116378041093,2.416865739382134,A
-12.895217621858087,-3.518726129191235,2.3995624156901516,A
-13.436201288286105,-4.224956970746823,1.898291940805809,A
-12.729359272620238,-2.9067289510960412,0.9671911575646107,A
-9.63531807321966,-1.1490778464880125,0.9493068156195653,A
-9.513235781650314,-3.3338676889203467,-0.2944561065167749,A
-8.559344823579822,-0.6092232460877899,0.3192425713883423,A
-6.771799289296705,0.3717631298835121,3.791918347966299,A
-5.684164386310741,-2.0101510139347196,5.469086131234368,A
-6.159540632617654,-0.4829440548890993,8.649590155904004,A
-4.5339411278989195,-2.1644943376410053,9.465112458208697,A
-4.833157896855462,-1.0952199862732948,9.747801060365687,A
-4.160636300509985,-1.3476405799012845,8.414069654066484,A
-2.1252741671454665,-0.3216668029342338,7.398728583881073,A
-1.2005833361369533,-0.7240840298128516,7.125148586689688,A
-2.0714822946285603,-0.6777864915672015,8.049368782869992,A
-3.554221833830984,-1.36991466769053,8.368049981822821,A
-4.313659459845289,-1.0199340454703887,8.053157003938633,A
-4.939543109119315,-2.087108089300038,6.2283928446403225,A
-7.554968806863381,-3.8189476301706216,6.61337101545884,A
-11.244921560358788,-3.1388442217771435,6.485729513368804,A
-12.128397639871014,-0.7086594852414594,4.197368940695346,A
-6.896678269535751,-1.7958620807314645,4.264926661929681,A
-4.60022498551691,-1.3490357574669276,4.8557257343242,A
-8.355281500747116,-1.5347893269804551,6.874491614763248,A
-8.942817879980227,-3.2458867168212806,8.139964250029983,A
-9.13380090118427,-2.9974168524819773,7.139102107434316,A
-8.197087666370049,-1.9684850674579417,6.758754317830395,A
-7.323302901861101,-3.1835626901145226,6.670508014487265,A
-6.665287849457594,-3.7359138374445733,6.863263472856513,A
-7.771129475659689,-3.8605984954032744,6.36865017805072,A
-4.304658774363993,-2.1537251402467756,4.991217062399634,A
-4.270417299402142,-3.046189204725692,6.186662423755824,A
-3.714520008493594,-1.5479085716274918,4.953977488219676,A
-4.715994153723397,-3.200841439051042,5.273697320739861,A
-4.017467763842098,-1.837035166533833,4.897836628389595,A
-9.910296867627133,-5.489311500489559,8.945682238947505,A
-13.218146604443534,-8.746547276232919,8.555669687412143,A
-14.488415530200417,-2.3764173805516506,5.148845322490191,A
-11.758452765913844,-4.779073728519544,3.556002542488078,A
-7.518836119540956,0.8282310482526367,-0.12824580463889687,A
-7.062849163947232,-0.862864893684071,2.3713497545894544,A
-6.29083888443328,-1.4128454490331293,1.4757554595834204,A
-7.6413721304080955,-1.7902531280178362,1.095508394570679,A
-11.13992696719816,-0.6262807508275966,-0.7573863971399707,A
-12.064167011732588,-3.338917425216395,1.1909778606097337,A
-10.547053341187025,-2.4078303540132993,2.297061636531003,A
-11.26395186914175,-1.5413523730449277,0.9573403230784611,A
-6.834560741904558,-0.9713816436615388,1.5295327444383986,A
-5.320764619936174,-2.6653225245260876,2.058132664861001,A
-7.414652536893027,-4.116352674480104,2.1349770031042574,A
-9.910560649019212,-5.034853696846023,4.071448084812649,A
-10.944198762801891,-2.7846157724364757,3.6830336882717942,A
-14.093204503749037,-2.213243485373522,2.266425630116862,A
-13.082688404521253,-3.3424691308014904,3.6578192505146125,A
-13.8629859358779,-3.6935955484193315,2.3662323719150145,A
-14.137263784126842,-2.1294415453890227,0.7968290162429401,A
-10.664595289875093,-0.8624169753348184,0.5494533264224823,A
-8.422075169895248,-1.3795538393863307,-0.21827252662610175,A
-7.933562816447585,-2.4680520530951537,0.2644129379626055,A
-5.940919153099929,-1.5444984311999084,0.5470082187200445,A
-5.100717736478317,-1.0748865859097032,0.36934570990871507,A
-7.111504307290715,-1.2742068029535143,0.37123144124828084,A
-11.500482732815108,-2.0907689912054193,0.4988903797787165,A
-13.60725076274311,-1.9234855218118354,1.0355883493104567,A
-14.267558973591823,-2.8707137898713366,2.520039529628,A
-12.517437401429818,-2.2342524575063423,2.0599564414433784,A
-8.600681191404934,-2.0999012433931226,2.2493399132098753,A
-8.751832822754745,-4.197369116295121,2.2045607216910077,A
-8.477423533170922,-4.516042263001519,3.3147133298527387,A
-9.237756096210815,-3.7252876831189856,3.691152047852485,A
-10.701478513811647,-3.861212204814516,3.1715685317535147,A
-14.780394831103733,-3.128049050112407,2.306431141840983,A
-14.12200253464169,-3.6724630210176277,2.4291282184772083,A
-14.887603249387332,-3.692454288375772,0.49984665864093036,A
-13.889956568098308,-2.3687308700329948,0.20731717211525913,A
-10.354285495425637,-0.826449544020776,-0.6089953231664224,A
-9.452146280416914,-1.5018860074443714,-0.6028822197996195,A
-7.757952946599801,-1.609952385388639,-1.0118755480576525,A
-6.71973021773551,-1.7850719858510682,-0.4440026497542633,A
-7.523177780003853,-1.4437595199102515,-0.9577634108745263,A
-8.971867934194558,-2.00930856102461,0.0456568268097629,A
-9.268860971109786,-2.2735057274435464,1.466287309203176,A
-12.329080153050162,-3.2828211996751584,3.3533020093286092,A
-14.617300942937225,-1.6835934537819357,2.093369311330431,A
-11.627898540461116,0.9924211656604631,2.3826148454866343,A
-9.729177705480978,-2.459579612232823,3.373327776917544,A
-9.36709061007894,-5.881098048875871,3.8106615764786613,A
-8.31438080785408,-3.885183137797702,4.08431799134124,A
-10.09536575877593,-2.624506071637833,3.8006383538793242,A
-13.997816141054972,-3.0945210485923957,2.090297086442938,A
-14.61455724529462,-3.4256732315596783,1.9091102903485553,A
-12.9645907586769,-4.355755792969884,1.0811611705675936,A
-14.269901063889304,-3.660424249088576,0.04103481675219372,A
-10.808425950342672,-1.7283788528334594,0.025019097200911763,A
-9.21521605855849,-1.0131366049381445,0.0031529279988035406,A
-7.793019164261882,-1.4065206865635436,-0.48208794559849416,A
-7.048841934565773,-1.5662504560166353,-0.08295606786541085,A
-5.962451691528721,-1.2806172417181019,-0.43473504976311955,A
-8.007590262005127,-1.8490174669777766,-0.2425550475612617,A
-9.62835037809588,-2.7259248584531397,0.710136438768141,A
-12.744555786710942,-3.5951015171768077,3.5617454919314184,A
-14.562889354221227,-2.6121933302347995,2.1413128598074422,A
-10.80186081737914,0.8560451345360647,2.590288642427321,A
-8.966220146668306,-1.0469703383887885,3.3902771461655887,A
-8.30369188006671,-4.635898009217551,3.4154732449276834,A
-8.007211127322932,-4.093722449617341,3.7072980863028784,A
-9.958960804202027,-3.064635543839738,3.6337024992791567,A
-12.344642324827431,-2.7157900420855476,2.3717790243360417,A
-14.601320087531668,-3.4787168287945986,2.0954373978967165,A
-12.1961678834369,-3.8330459401694164,1.9570282575546896,A
-12.098929260303573,-3.526677917266816,0.9092207637368755,A
-11.163841716534918,-2.220874773912145,0.7064069362474091,A
-8.550046418844136,-1.2041751459503451,0.8443296544985766,A
-7.838036762089563,-1.398073532845509,0.5354184340184811,A
-7.230987575340108,-1.6732347426253784,1.085815537194847,A
-6.96128783855683,-1.1413800633035764,1.1723019398625365,A
-7.621488353589859,-0.9949814883783117,1.2702067363981817,A
-12.118740887181437,-1.3909997636724822,0.45709650023980863,A
-11.186124208344122,-2.460968979202911,2.1140079208856295,A
-12.32051858902015,-3.071932726788331,1.7534744016685633,A
-9.73610926595744,-2.1236534086025056,1.4039864945395204,A
-7.916009161431153,-2.0433855706506314,1.6643211819302293,A
-7.257684645132136,-3.3806934797045387,2.335323503198755,A
-7.782622917771594,-3.681525191390401,2.973452340321929,A
-9.383491889910387,-3.6986507677029974,3.960614932025241,A
-11.82783307626353,-3.0871207699716847,3.468234185733359,A
-13.90702688245354,-2.819944055253349,3.1721326767910947,A
-14.266332632866199,-3.72462512950794,3.2454799044242217,A
-13.97596840000963,-3.0475893504160756,1.7812785059178948,A
-12.214802385402683,-1.8676341128250473,1.1094000860484143,A
-8.416524176736848,-1.4044692736824664,0.7053205898301997,A
-8.518277420456002,-1.664215775645878,-0.12832188273897727,A
-6.9438724096121005,-1.9743984220979598,0.37465458894561926,A
-5.829369587206784,-1.4510248362452884,0.19197984347983105,A
-7.316562851607636,-1.3067155499189154,0.03494823155535419,A
-11.23077048901607,-1.9257926501982516,0.529617047988261,A
-12.754704974224463,-2.815005623250135,1.8210719672896332,A
-12.593768805561742,-3.252745749740806,2.323726555435731,A
-10.455349297945485,-1.3272036231534958,2.636646689618281,A
-7.702299650720331,-1.6445140529349578,2.972282658333047,A
-7.781097395736834,-0.989899988758896,3.5184174841580376,A
-8.586626872751564,-3.829693852822842,1.6131206327056706,A
-9.019791154611164,-10.24792785209608,-0.3632611722858833,A
-10.781606706459348,-6.47732456715958,1.0324064289555623,A
-13.758974467108818,-5.186445854825865,0.8211127425880089,A
-12.161236574148099,-5.797761077197626,-0.9659544879739268,A
-13.08427559634855,-6.301525749231136,-1.5001247719998732,A
-11.445615696682609,-4.058161589426229,-0.7838271737225501,A
-8.685872467778754,-2.66779337977146,-0.5329073362144877,A
-7.258381526875713,-1.0375688343368836,-0.24129020709202478,A
-6.202226249872168,-4.110219795472874,-1.8168312199928658,A
-6.64720965113529,-1.7722916123696377,-2.110383744905888,A
-7.806652847190215,-1.3336555242883286,-1.6755984882748323,A
-8.83323031990843,-4.733387176150717,-2.2148252574836476,A
-11.008913658286033,-6.096175920599012,-1.5565543143084875,A
-12.360409781334601,-9.310388967674356,-1.6371680087631832,A
-9.841787993924704,-3.5534671174460177,-1.3384622756992126,A
-7.708413357593118,2.902846138291693,2.8704290747581656,A
-8.56368080632922,-1.2609216827100684,2.2807084781707907,A
-9.472613943066701,-5.880756461356046,2.5767214353587775,A
-8.731009814821812,-5.099984207394362,3.5969064128689534,A
-12.241751312757225,-4.162865677464912,3.741779946984389,A
-14.070817756269278,-3.236952173486295,2.738439160952374,A
-13.536708570405182,-4.77550674476722,2.9685775939068226,A
-15.14024444616057,-4.163584912625101,1.1169771813564813,A
-13.252719526019579,-1.7345808309767068,1.1569269808179976,A
-10.099696043008827,-0.8530417915365708,0.5617775814500131,A
-9.461785614125398,-1.1824743018314205,-0.1886194039643977,A
-8.274866460611875,-1.0654647006804197,-0.39396231461285713,A
-7.114660040168517,-0.849990128656323,-0.17046385336159983,A
-6.197149965693987,-0.7775676374100898,-0.400638071672315,A
-7.453184680146835,-2.2714418702921977,0.7727654484769153,A
-9.856049991947645,-2.5598305548447144,2.3850751116797086,A
-15.318371550523354,-2.3522439069423973,3.4270987550846406,A
-15.659439037556947,-0.3864430246443544,1.6215634287251492,A
-11.497073523173501,-0.08618514652201055,2.075555582411482,A
-11.55467357896641,-4.8977523549457365,0.8501546166792908,A
-8.87235103275655,-7.0527383535903105,1.5593872785835274,A
-7.783991709347345,-5.381529595302014,2.680141527707474,A
-9.793783162565163,-5.419206436029844,2.8540267478957717,A
-12.752578832812993,-5.087359625583733,1.838462044723359,A
-11.773024937307659,-5.227878965302145,3.309633796646154,A
-16.21051259106045,-5.350180353050949,1.733069325683011,A
-17.11764558117806,-1.5329267716491846,0.3039225582853853,A
-12.292620475178028,0.7786227806277153,-0.43719788290598616,A
-10.554570036310459,-1.2096215208687902,0.11622393812981527,A
-9.437707553710476,-2.1279240512779225,-0.44618209562542116,A
-8.200466339616657,-1.2049498410125474,-0.6713143910823368,A
-9.539174403211806,-1.11480779625077,-0.5205993848231332,A
-9.702165993941858,-1.4069625015105924,0.6355928377410673,A
-7.388541292555569,-1.4954697496347875,1.405116368114654,A
-6.31474242394501,-1.9106169560215067,2.418591651131078,A
-10.939102131725345,-1.9562290330864787,2.083874857186755,A
-12.997299366979211,-0.5364220034675503,2.4136274076308335,A
-12.777994189539761,-0.3153420308995458,3.826194544456243,A
-10.693730712283623,-3.572972861085307,4.727183060853358,A
-10.320045026177953,-3.4968838039530583,4.160238684234661,A
-11.177657282988708,-2.4750599007671505,4.757090316793987,A
-13.845084165084742,-2.258235289110236,3.746872584341788,A
-12.79367662207265,-3.6408631848938016,3.6202039544716853,A
-13.033513115223514,-3.636639915499605,1.0650700749832223,A
-12.706858482042305,-1.655433598668319,0.7060110857937836,A
-10.558422009665959,-1.3441533253898121,0.050933117749945876,A
-9.903472612280567,-2.5970824706517464,0.12016366012845288,A
-8.594643170895678,-1.5133970914082076,-0.599015355391297,A
-7.88873624775487,-1.173396716204496,0.008917821693572829,A
-10.595903994894268,-1.5097378359104117,0.04844668289264869,A
-10.626252237924563,-1.587126627557161,1.0659622796215285,A
-8.26212248371509,-2.356064926886393,2.9758065100590967,A
-9.272512170379365,-1.589101866098442,2.0226281621002484,A
-9.913336429083202,-0.33743080199865383,1.0258113837948646,A
-10.02667771092101,-1.7816794856656428,2.7388435490865968,A
-11.223474244852062,-3.9771452686083117,2.3624481859431206,A
-10.456951487815667,-4.137586830869846,3.180190452880273,A
-11.50194895854656,-3.918355141024665,2.6937324847166084,A
-13.113890322506366,-3.9529688416793367,3.3692232997065132,A
-10.950262402400096,-4.202151354726525,3.2422445835559626,A
-14.146956649691008,-3.955325447150542,1.5582200936050745,A
-13.00988789185755,-1.5478156069343505,1.1446969403958183,A
-9.729669027524267,-1.4941219338154852,0.5203021036862545,A
-9.991868636441318,-2.7802397056496098,0.39214845917217983,A
-8.515630207291112,-1.51738293973651,0.2946664277382959,A
-9.595380185936554,-0.5678148819198644,-0.06861633179082972,A
-10.537344919020748,-0.7772697976016828,-0.46019836283299137,A
-8.239648817780882,-2.429026182627716,0.43888374043810224,A
-7.021647096062406,-3.1360077891017664,2.0495442823512127,A
-11.38174465126235,-2.7248639872460663,1.8597873715574533,A
-10.673410874361581,-0.31866204634417494,1.76348437319181,A
-9.171517368013784,-0.5045448762343544,2.1522004000563224,A
-9.504061059923368,-3.6218649190762666,2.1247993953192665,A
-9.265518901576717,-4.520508915667614,2.800774147749082,A
-9.669037906813717,-4.027050030836596,4.545997432434153,A
-14.543569416727939,-3.4827611623057377,3.964305101201106,A
-13.860451837054121,-2.45451335874604,3.4223930380583436,A
-11.85712085052219,-3.2024305508160844,2.1042320322677592,A
-12.832145623771027,-3.3979230472917368,1.6326088748134135,A
-10.291326683428549,-1.7251726063674522,1.1810965427810116,A
-9.572144467287714,-1.9415570149962613,0.40314578576098836,A
-8.840682707942472,-1.6470682108552575,-0.2071548689398718,A
-7.532599400120469,-1.097155670230063,-0.19997907139245139,A
-7.358895179371843,-1.3540277280473803,-0.3133198845241387,A
-8.270328610870013,-1.8747402216405573,0.19464278921922432,A
-9.435770927802656,-2.3660391069644047,1.5445241145479531,A
-11.244809678044172,-2.784045717320951,3.7406124760003467,A
-12.89143735656523,-1.4341482368529042,3.2145912596512796,A
-10.605281872629396,1.113041158701531,2.154343082564612,A
-8.67435858763384,-1.6862997507838222,2.0102108092993958,A
-8.62564063243116,-5.190617934059036,2.605761637149949,A
-8.239801240612337,-4.903475277487512,3.2311467749828875,A
-9.878030132483234,-3.9851743623780638,3.639535674613417,A
-13.940775823537571,-2.783363539811294,2.377615360439513,A
-12.69987036078621,-3.194912814131592,2.7420379267883583,A
-12.516557060524011,-4.571079006985238,1.9844273695936898,A
-12.924712886486313,-3.6199818175193057,1.4499591294910257,A
-10.277015745302638,-1.4808477029276435,1.095170075074699,A
-8.886133019261708,-1.0167629080256193,0.7142181269863644,A
-8.289941430003942,-1.2457241159871375,0.2309886682397237,A
-7.564777458600738,-1.0157365002758323,0.08227340001081275,A
-7.796905576396769,-1.2003292453676322,-0.297102098488243,A
-9.530584562093397,-2.1309151647178863,0.38531959834222884,A
-9.454922151587901,-2.724660770366873,2.0292663379481017,A
-11.291670763265017,-2.8278557272987435,3.2988387099011205,A
-12.921105217624119,-1.3636439655960866,2.492486056139155,A
-9.72278926669079,0.9723730896701241,2.4782943420000914,A
-7.871515795202174,-1.7721926966416952,2.5425860324559677,A
-8.06700540373745,-5.313201809910253,3.1626996616106418,A
-8.359044064949487,-4.570894199987782,4.149448319986029,A
-10.9163490453102,-2.974497472203499,3.693443732301036,A
-13.602623593475787,-2.4430955140609854,2.043308933784361,A
-13.562766268750154,-3.6489911349182003,2.290143275396519,A
-10.543592356009356,-4.86891097881319,2.1333417912352632,A
-11.630614118298949,-3.5602990475764313,1.434806072666543,A
-10.103876521032326,-1.2722048112303321,0.9259216555140386,A
-8.580917533451274,-0.6005619719115544,0.6697076621433017,A
-8.540843155763497,-1.795208494701779,0.2200284120808523,A
-7.393033802674154,-1.7775805660533734,0.5328868954783715,A
-8.289052747598245,-1.22500399712926,-0.12724062575841374,A
-9.72294511321524,-2.098908029166644,0.6041117292662704,A
-10.226003844404014,-2.2692746785290816,1.7471260492582048,A
-10.11486430140284,-2.1583098712675772,2.5394714272504233,A
-11.645488959381936,-2.1691253663137897,2.7058209534816404,A
-9.33398715056032,-1.3199196227549455,2.9118495618316453,A
-8.085837902826817,-2.31886989896763,2.748462384471367,A
-8.222603065802486,-3.4753124304952485,3.2965617457737495,A
-8.993372150354588,-3.34081037195889,3.8866290882302756,A
-9.97038701119335,-3.05710772944393,4.170555842048922,A
-13.47704401236671,-2.59700625877488,2.707378879806803,A
-12.968194006418003,-3.743795092570185,3.366007224110922,A
-12.49284669519631,-4.265693845721068,2.125656302366912,A
-13.618790927446906,-2.9803755849999525,1.3296117815127684,A
-9.910327790851744,-1.514665692459111,1.0571807325331808,A
-8.47972127356638,-1.6406960967657782,0.6371176742061938,A
-8.573774373129886,-1.6308805898904095,0.03482871983383477,A
-7.550616125456011,-1.3376896092641406,0.14040056854620248,A
-7.063703414474609,-1.204413007963825,-0.5869340873400287,A
-7.449736580704346,-2.0182260073496296,-0.47623357018790774,A
-9.153758927443688,-3.2491187778556876,1.2187702462002237,A
-11.991927670638919,-4.0130428657319355,5.012953167710954,A
-13.512307335686412,0.29765556843300567,3.018649546862282,A
-11.624671223663245,1.900490200118412,2.8953215098656226,A
-7.962757819873393,-3.5012224088670463,2.827539393095637,A
-7.666119142304304,-5.235468597179549,2.0399168084798993,A
-7.436644633438517,-3.8538262070153158,2.5409367965392016,A
-9.272555753546508,-3.6679855779079165,2.668264427830496,A
-12.705933069588632,-3.9254275760583344,2.1185185126229626,A
-13.45082184879331,-3.919840828663041,2.2216527569316247,A
-11.669621069273239,-4.731628858244812,2.2901925235302847,A
-13.541703789275326,-3.4234011260833306,1.7571892183955242,A
-10.592963824273268,-1.8822337629523713,1.843540940161677,A
-9.424603447874986,-0.8999591473155645,1.3448002855665095,A
-7.821409497659806,-0.8575858501594288,0.955137457068853,A
-7.16294736561255,-1.0015691557452784,0.8422644262275293,A
-5.67185498632525,-1.293323799390311,0.6506785143126209,A
-7.644757846026822,-1.411878210527479,0.1784536094306963,A
-10.644071639433506,-2.6433410857676005,0.9396975004431487,A
-13.173868939026214,-2.0567450635931794,1.5884441408203458,A
-13.453925747985563,-1.3995965954674363,2.2530074494319687,A
-11.580913759549782,-1.0887938425837616,2.013842191506326,A
-8.206388347209701,-2.541885551076234,1.4408478674664973,A
-7.7457295340830274,-4.87212332000343,1.568949868894289,A
-8.200156121861928,-4.566992577928166,1.917665325018561,A
-9.365679237194149,-4.519376997800258,3.1097099108013055,A
-11.61423965701816,-4.538539456447166,2.901366279258033,A
-15.114920232320557,-4.2986225909566285,2.9082308349609183,A
-13.017654843612089,-4.043568302494661,2.8236035880489325,A
-13.985512120926362,-3.967779133983548,1.6487944625347972,A
-12.393238684373348,-1.883828141584005,1.121694499537825,A
-9.383579329803538,-0.6137549544776338,0.700873493220401,A
-8.411690389288935,-1.351583022217536,0.11677736761848562,A
-7.461062827561219,-1.3345433751648348,-0.3972680591100987,A
-7.041574547043484,-1.4276891015708193,-0.39397310429023225,A
-7.518932353393746,-1.74545348917351,-0.4710733453322128,A
-8.95520968288358,-2.561995225461308,0.28554255242879395,A
-9.93341576242288,-3.563444795552253,2.600227488156207,A
-13.715393584381124,-2.9931254835971757,2.5218399378842804,A
-12.91272153212759,2.3747048256064107,3.0062222940114767,A
-9.153814747923848,0.4049804260699376,4.61956358229648,A
-8.288877454460975,-4.839756416007836,2.8804337709756687,A
-7.7079521465633025,-2.942512020624703,3.5982019079203615,A
-8.407461259925181,-2.617858656716323,3.6248108597339557,A
-12.349659571994033,-3.6595559354997893,2.8227951271915637,A
-14.45217375182459,-2.8843217423633836,2.7876569228345542,A
-12.469027919632765,-3.402691955717588,2.51803214918427,A
-12.129054444179372,-3.5888752179163608,1.2391314634654411,A
-11.201815797755021,-1.997790391910602,1.6073094491241218,A
-8.83531770158784,-0.973595208825183,0.7982705996021965,A
-7.757278831693758,-1.2613611977990344,0.549373643146973,A
-7.698851567261132,-1.3305282502548548,0.17123659941966038,A
-6.955134909983055,-1.2194519856483406,-0.11660258961712401,A
-8.497242865606115,-1.4205753473549798,-0.47687976134172383,A
-10.228546605391724,-2.245926016613566,0.6459010123654566,A
-11.634177399472248,-3.6737042943719143,2.7602225567663186,A
-12.012123956627464,-1.6521552164009536,3.589747246235616,A
-12.346041488360196,1.7203104252483543,1.7697894302858546,A
-8.423658143895167,-0.560443954699691,2.443527251042655,A
-6.979896668814792,-4.225249845101642,1.3703838094029186,A
-6.315711830594019,-4.240331838719555,2.042173402655604,A
-8.052700518191081,-3.1871342784574686,2.7067181323056837,A
-10.695070040898615,-3.7378764707849474,3.1138790396009743,A
-14.840053527056897,-2.587507603149343,1.8829949503105647,A
-13.06809875594165,-4.070564670316264,2.5883888165957853,A
-11.815062303558722,-4.279869404349247,1.8389593190897513,A
-11.622683961432674,-3.162163574095019,1.6593397286509735,A
-9.719036945920223,-1.635605572963621,1.4394589819897416,A
-7.599875964154138,-1.2311108169840157,0.9284913054921534,A
-7.508747785098874,-1.264128180733111,0.3079839910128777,A
-6.741915557220549,-1.5259188750066368,0.2953692729941116,A
-8.84728079665489,-1.352773790446589,-0.2585305729156025,A
-10.414559180603176,-2.4795923442662913,0.13734778394840308,A
-11.4860812632611,-3.4676292684756946,2.18420491214146,A
-11.174610045762474,-3.0849883734279193,3.1892683928246686,A
-12.43713876998853,-0.3105705754962089,2.118015603198175,A
-8.9388037648535,0.26011781410302726,2.0225940859043035,A
-6.987506884125256,-2.3470942431781356,1.435350003535058,A
-6.3784836035898005,-4.049636880909665,1.5866592794762464,A
-8.02316711378217,-4.47367728119558,2.66441068956633,A
-9.970275947329984,-3.6435388321048676,3.5315211000407256,A
-14.19034655188493,-2.0511322755166432,2.453873159798258,A
-14.834681093869,-3.0952757094863643,3.3565968380784166,A
-9.99635503910125,-3.5469255262968846,2.6788130883778942,A
-11.242723403074743,-2.7323380083433992,1.9238963842971553,A
-9.626742636048045,-1.9043922537021023,1.8897888725935619,A
-8.600824075940272,-1.2932895326786766,1.1160503443049499,A
-8.285615715579207,-1.717268147318733,0.44220893899807134,A
-7.70416020840003,-1.2786316733172975,0.02455596888386721,A
-8.416636270040788,-2.027892611634223,0.2797241756719508,A
-11.185430740197344,-1.718022406466156,-0.47949158546323917,A
-10.67574056653269,-2.9753173991580293,1.4348634583432571,A
-10.070232319711584,-3.32793522313862,4.043261913135863,A
-11.974015143842948,-1.1085865808898656,2.4910386613154913,A
-8.56436093229341,2.95216934918282,1.7976484877890428,A
-6.137874011182548,-1.8810957342509373,2.5138616538893137,A
-5.270779460153576,-6.174468414331813,2.577611068380091,A
-5.781550981535991,-3.1905776313714234,2.6148199893498356,A
-11.394499454157806,-5.367490715880176,3.529681365089404,A
-18.8124202753379,-3.2844109766844576,3.050557633392167,A
-13.363955693935138,-0.642550914186106,3.04857263734233,A
-10.598737303418051,-2.746377995832674,2.0754909469005693,A
-9.9947745375556,-5.20960955537214,2.63431672010284,A
-7.364597490037646,-1.1216985821307455,1.1447146692810863,A
-7.304956407926588,-1.7952654599417592,0.45301548339976255,A
-7.734818545052593,-1.9944153503734403,-0.3825219441826556,A
-7.955113724642181,-2.286068006819355,0.2869786407688512,A
-9.019365557041008,-1.9557945672188595,-0.022358042907785956,A
-11.725485363183568,-3.1714769370090914,0.4168935626578624,A
-9.810758440485694,-3.628376913713324,3.6461824939688965,A
-11.924295066801061,-1.546015417319508,2.32997676421947,A
-10.321951346159876,1.0279443586850696,2.0474991011881625,A
-7.071277879926994,-1.634368605588508,2.4581436010915967,A
-6.680143247454867,-1.9796584379070283,3.454402256187129,A
-7.305093769177501,-6.747762120690681,3.4774941150727727,A
-8.005025887490273,-2.7741482826546475,3.4925398561449783,A
-12.586261473828236,-3.686627625612771,2.131201191890641,A
-15.421441059022852,-1.5519214504048442,2.158445072930588,A
-11.136188324700738,-1.5256816482515294,1.4823096333007035,A
-11.366882508438298,-4.535807538799256,0.7488883831866328,A
-8.650454650714456,-3.6856116493103404,2.002467575667093,A
-7.211301690486946,-2.0131003980634428,1.0201495353893206,A
-7.197315245046535,-0.8102787077429175,0.49319507631382825,A
-7.518024973620677,-1.9280498101843064,0.24521229921521068,A
-8.102381238678214,-2.2699734447172704,0.6226463706441914,A
-9.24997931964293,-2.1277996169909454,0.10831595981907385,A
-11.540567868068905,-2.9748525815575304,1.9523986813242005,A
-11.47351830672166,-2.7236754724538703,3.408985863720401,A
-11.25284603599717,-0.8589303625755896,3.0251544795204772,A
-11.174739239918969,-0.8196522935367598,1.7313871959720697,A
-6.5758129626820025,-1.953072855056158,1.8772305161497973,A
-6.090058183188765,-3.829904032706612,1.1925227511075,A
-6.653076728086272,-4.457015010729815,2.234683133366078,A
-9.512280350259127,-3.7808389674649923,2.547658880831126,A
-11.782831198449639,-2.4447009816939906,2.3629837026619733,A
-13.26295927027938,-2.561763583179546,1.9674525128393907,A
-10.688335476906657,-3.9397635247773763,2.7684226735455537,A
-14.106308530654548,-4.234669276595783,1.971319124847839,A
-12.45566681282582,-2.3098759321372766,1.4023436385480545,A
-8.8007292345333,-1.1138260682979149,0.7536510781764568,A
-7.246721155637555,-2.1267871002109793,1.0719358662045944,A
-7.919576662908647,-1.8745048035709515,0.07659233321437973,A
-7.046370256062589,-1.4459116854781293,0.6473841889403571,A
-8.409713408490518,-1.2036280245801751,-0.45463760417219906,A
-9.252206782040409,-2.5322358036065737,0.5533189662278388,A
-10.509033980486798,-3.3110216226424174,2.3687036222417057,A
-12.104473937450383,-2.7811851050712564,2.600076625597196,A
-11.932270962344786,-0.7272823442464464,1.6165710967195759,A
-8.183652373725268,-0.6812324440580608,2.3188472221889103,A
-6.896393338928537,-3.697477498721976,2.0717024226400844,A
-7.154928979085196,-4.293034638953935,2.8854978501620803,A
-8.936055816568183,-3.516229101319514,3.7161630409277184,A
-10.857086437750295,-2.099079913288199,3.450533151139633,A
-13.248771720946941,-2.661143993181694,2.265726267830532,A
-12.365865243952582,-4.072402126912597,3.132277606043034,A
-13.105967801625887,-4.209956528613735,2.131171507277839,A
-13.24973923776542,-3.0644316118807056,1.9161509079351975,A
-9.528528473027695,-1.0284068616660422,0.7805575316999693,A
-8.004011750294366,-1.1736404152580553,0.7647382779908752,A
-7.589020234833653,-2.268529613278334,0.5785245967293072,A
-7.04430121892831,-1.4788200959426439,0.504534429858741,A
-6.895906523202097,-1.1600181123221123,-0.10943315163342507,A
-8.025313447375687,-1.8260958407980417,0.23043104528107264,A
-11.003876978058512,-3.2108406877823943,2.1726792830895096,A
-12.39904613130132,-2.560631366864457,3.5359755167717073,A
-13.067683289306318,-0.3326661066009305,2.2227774300834584,A
-10.62346773661772,-0.25070275359530053,2.6342284749772324,A
-6.824881519260314,-2.018501873275046,0.8867793864818548,A
-7.337346524977008,-4.8002002189067445,1.5012096584032093,A
-7.747721966034254,-4.784943233312148,1.9078584143484503,A
-10.319690014070709,-5.28925752159932,3.387501854322693,A
-13.107257058502684,-3.0592531573787043,2.308378644776989,A
-13.354620221671636,-2.264226245986413,2.38326113582175,A
-11.266396728033476,-4.513047806850579,2.558630056318389,A
-12.471043276685643,-4.335316012286355,2.391725753434636,A
-11.13994412617361,-2.2900636152803857,1.34451141053721,A
-9.371134901079147,-0.738280764134876,1.2050427048572794,A
-9.229044763972992,-1.1418748999821817,0.5674680398432056,A
-8.496544818562942,-1.1786304291947283,0.4556567064760134,A
-7.289300441013837,-0.8392941858834391,-0.32379603308058047,A
-7.474441680308785,-1.9309060128155409,-0.0383368513249165,A
-8.871984499663954,-2.700578503161832,0.8219581082345894,A
-10.03488448207116,-3.1336825185150845,3.492216854057493,A
-13.914065227685152,-2.098090038613971,2.776299267150285,A
-11.090184001288415,0.9486093064445026,2.15155478360285,A
-7.727905651111231,0.13800752104072322,1.4005370785146538,A
-7.8043765532854295,-4.841019413984402,1.3363499707926858,A
-8.001943303095056,-5.995534432670627,2.583723860441046,A
-8.662929133211081,-4.00841409409233,3.6123674185931294,A
-13.426865481509335,-2.8922116416837875,3.2512945744477277,A
-14.697097559088716,-2.366467850695917,2.898221126661317,A
-12.631355050137786,-3.1570055444647096,2.0475012295616826,A
-12.641896253410641,-4.1593058366368,2.0798880803385553,A
-10.433938967801566,-2.4687986575741374,1.412771591307711,A
-8.665306718128214,-1.1423687648209218,0.8539453807046534,A
-8.135658135383077,-1.3441691459167608,-0.050643934963588925,A
-7.333217014013799,-1.3369726914090618,0.24308017298969756,A
-6.792052853164064,-1.4203594650698506,0.09733127359613668,A
-7.687199248127218,-1.811380503775133,-0.12761228356536905,A
-10.199757645925965,-2.882864642965705,1.5063261981532654,A
-12.57193080244819,-3.568243458259959,3.8319432889878553,A
-13.341957991533315,-1.2393936858329062,2.5876597649310624,A
-10.515672993990886,1.0007337823082274,2.0576219858755582,A
-7.873277343610067,-2.1720790863121655,1.4176834132486393,A
-7.189637742589408,-5.278167489660182,2.158980872052704,A
-7.619674564814829,-4.471330874898839,2.6539482940983556,A
-8.692209639921455,-3.93412422095837,3.3166212999877858,A
-12.677633631535212,-3.415922833921507,2.9770520509792058,A
-13.350695942970987,-2.9691461726310147,3.0856163650324264,A
-12.07709505920992,-3.5312308048748737,2.7700831093978016,A
-13.747270989805155,-4.0640300555307105,1.9307003802235796,A
-12.494207873852995,-2.3598324363536882,1.1679917713083785,A
-9.652685528599536,-1.1884250763591475,0.6876082234356369,A
-8.510698932316409,-1.464642218693293,0.07425234282269493,A
-7.668171548307906,-1.8462311872893733,0.5053974664063723,A
-6.643177147360113,-0.9524490491169475,-0.030970324754343852,A
-6.561004489796476,-1.271969775665461,0.10881242607995541,A
-8.802693079805984,1.121335393373539,0.9841350108819844,A
-13.53812363906951,-5.758397911398637,-0.3330959314024171,A
-13.059155690086431,-8.11462271367073,-0.6679313497141882,A
-12.336076789255634,-3.5861639801815244,0.6904438068723622,A
-8.032793398932517,-4.827767105752641,1.0366864396250468,A
-7.897062031502839,-4.016629850725202,0.4254861025844597,A
-7.855543522871117,-5.965897033591474,1.3974074193812542,A
-8.789966150864826,-5.945284821151349,2.1028796632100284,A
-10.776068728246019,-4.913641991852495,2.2856105021300754,A
-14.302853393462753,-4.506422563705781,2.184252936976753,A
-13.16719759446316,-5.694037609044704,2.5914246566235652,A
-14.401493859532305,-4.639117472280536,1.458150036599633,A
-14.236250071638691,-2.3404734532708362,0.6612401361170136,A
-10.724791333958567,-0.4673722133400389,0.6435959368249738,A
-9.7247656014984,-1.3340625530635815,-0.09709236415900477,A
-7.972550651087162,-1.4905111893345575,0.046504398656431495,A
-6.491110033147565,-1.248915971724251,0.06523421185491561,A
-5.547679306296606,-0.9044633199745803,0.5213625872972053,A
-7.804735044859405,-1.690409392620523,0.5413988819622287,A
-9.889361010214643,-2.1490578788608805,2.3034455490214834,A
-15.513339497014929,-2.7732837999109,3.0531680982115117,A
-15.293294563459934,-1.211430431095906,1.6454438386194605,A
-10.003102612129192,-0.42426688324749273,2.353430905961205,A
-10.661207197457923,-4.267390060821973,1.4326207099165813,A
-8.263109454471556,-6.370876748068936,2.618847684135482,A
-8.212194386508543,-4.873692131450956,3.4166951998772706,A
-11.555303437475,-5.297145032946168,2.869304347747531,A
-15.803538946374326,-4.498802418342242,2.711439405802632,A
-12.28912462451646,-3.858506763675325,1.842588155931292,A
-14.238063651016121,-4.43207518427565,0.9278803748453428,A
-12.872281144979972,-2.8097030092262214,0.9827289334492187,A
-10.840163011271832,-1.0789741225932639,0.08729417016529628,A
-9.197905986475284,-1.3003426820857076,-0.14120701809972808,A
-7.895236344043821,-1.058222886279927,-0.3950743078185624,A
-6.3629810228022645,-1.1880989662760302,-0.5059724409558695,A
-7.589080985999556,-1.3577499508889423,-0.567903183865839,A
-9.39063424599938,-2.4174237375957697,-0.4849565391018201,A
-9.616642260153007,-3.047788687916538,2.6637765255701704,A
-14.46699653613062,-4.651738674275011,3.4185303002947403,A
-13.572978807826495,0.1995087452634066,0.8818819634544742,A
-9.511988985050314,1.5748133208110615,3.180176522874219,A
-9.386444982324159,-4.529415658232347,3.4094171433000677,A
-8.181028840652397,-5.974281892155906,3.5643500376293096,A
-8.843105793154399,-2.695976196576371,3.7446491299502354,A
-11.716957111935912,-2.0257829082242185,3.1384629012921614,A
-15.023332796230601,-2.6559001382374996,2.416269947226969,A
-13.546463997383455,-3.4945865733200843,1.835877842765016,A
-12.288853648653149,-3.1227272072946954,0.33144171078886514,A
-11.755743604977225,-2.7846820881157055,0.5428712700842437,A
-8.24333312153623,-1.4959221233657947,0.5943851380072246,A
-7.699062776410037,-1.7144160314941372,0.03308013100673861,A
-6.968416035708394,-1.3657259101673258,-0.10839044922458758,A
-6.993732957611166,-1.2912624237836008,0.006898017458854867,A
-8.160465301521505,-1.4539811404942398,0.3416269207033588,A
-11.453384348454666,-1.981335822275468,0.3789437473411801,A
-11.192199852394866,-2.8094137091848066,2.5171501706518065,A
-12.93544548096852,-2.7825859248179614,3.5230009714397714,A
-12.539479874260278,-0.5938286758508117,1.5806444607246428,A
-8.8183310055122,-0.5994719316551593,2.2281337428883643,A
-8.875741114643306,-4.340160308357002,2.1516360480108574,A
-8.027302703967864,-5.245483442221445,2.94756098379734,A
-8.686175286965037,-3.664620189938411,3.4466425920651806,A
-11.761452976404971,-3.2491961634503466,3.287620967597502,A
-14.874538443123086,-3.0000067469457337,2.8441518421184293,A
-12.992756506554583,-3.384984529510965,2.30422540417075,A
-13.951270395423101,-3.404998710714288,1.1030532112399944,A
-11.024629630649867,-2.014737039735086,1.3968603285563492,A
-9.062252815572206,-1.4600491638851518,0.8743697577552605,A
-8.198492918870311,-1.63947839300798,0.6064902317068142,A
-7.120097651576952,-1.0277326811903447,0.7076382191321403,A
-6.050832341353115,-0.6635468389528091,0.6724004076755433,A
-7.006374964246346,-1.0201277706150287,0.670356045784943,A
-8.706660274587378,-2.0279897467071346,1.0264029275607052,A
-12.258035053799276,-2.0379568440863376,3.2386765778978885,A
-15.35172451483541,-1.0627235873232268,2.8832969860137196,A
-12.403950020206544,-1.114457242269679,3.6266965942326728,A
-8.226595716973192,-3.2685635789703453,2.226921265761852,A
-7.334988379740695,-4.3163308140654495,1.9608338841626851,A
-7.332022838553873,-3.4831038527469413,2.6299151992735856,A
-9.477439496191064,-3.9254445031213994,3.546767066161928,A
-11.42064381242441,-3.749917680850952,3.3925952792284795,A
-13.299819374683347,-4.079773856552713,2.3755100520301933,A
-11.62709881713073,-4.876315726171536,2.5526389648281866,A
-13.098772076131691,-4.639663184408287,2.133751218479422,A
-13.616296536715184,-2.6098810968961277,1.6058667921748562,A
-10.420117452673365,-0.7540802361369198,1.3884729245561631,A
-9.357417994954611,-1.3924778271430438,1.0280455679304177,A
-8.268597962996688,-1.0528696189724849,1.196165939271897,A
-7.426607185050219,-0.7008692612634788,1.1095580983026738,A
-6.253914701261861,-0.7201947790540496,0.5163186590349247,A
-7.3867257036100495,-1.5316060143097179,0.759038602455881,A
-10.13165961183318,-2.1188305872797546,1.6957933207982456,A
-14.752836277431205,-2.080382680968805,2.9421311201190887,A
-13.643113981910444,-0.271137042294454,2.8501337249899774,A
-9.40086586948447,-2.5068761913373923,2.4114022407634494,A
-7.651624227405378,-4.342387400395351,1.4723338709958478,A
-8.406161969274114,-3.4768802759559043,2.226506827657414,A
-9.28416637312913,-4.707545837980486,2.5664937185131436,A
-10.642213083421858,-5.212450192376977,3.2942286847854425,A
-12.731908956088908,-4.701368950929338,3.036837746071249,A
-12.592952750188063,-5.330941183622238,3.2969107665848023,A
-12.55565635785154,-6.117111455930365,3.0122223929017937,A
-13.732015406260452,-3.5889725951142135,2.0029643703687343,A
-11.547935566600563,-0.21712841433556118,0.9348148498105157,A
-9.224351685863953,0.08274088737468523,0.6475916428122019,A
-8.562617344670626,-2.3141264142525655,0.31160159969352114,A
-8.099022488338894,-2.0901370596892463,0.18693683474412756,A
-8.565029040272389,-1.0452450726511207,-0.1479726279825999,A
-9.033737441787046,-1.5435025371003157,0.42805102607804235,A
-9.040047703270885,-2.0243908195577665,1.6969141310925535,A
-10.554268439400907,-1.8208202905523727,2.8357061906319725,A
-12.767811415567715,-1.1560130628016942,2.2582843818365803,A
-10.14290915219171,-0.790002307846688,2.2912345318840845,A
-10.228671556863127,-4.17106193152737,2.0836538963835642,A
-10.574532794588167,-5.76960986603866,2.9228386570859586,A
-10.105260373485155,-4.268620471896295,4.762805217537641,A
-10.304334461390177,-3.8139358279339124,3.367286163533422,A
-13.307418576382961,-6.065008799078115,1.9452390928752865,A
-13.177847534882357,-6.8024763917735385,2.1118226323079985,A
-13.709441977299717,-6.0386171066869565,1.172979956215853,A
-14.47947324278707,-4.610106227991692,0.06643554926145671,A
-11.3601419942878,-1.1618335590378557,-0.16535651681499017,A
-10.693580525565528,-1.1718189002390147,-0.45974116545552557,A
-8.451685998813874,-0.8921388455942908,-0.3772023511992012,A
-7.388087357537803,-1.220613516521955,-0.733616880359988,A
-5.8587893718261075,-0.9553230183817801,-0.2818337665690848,A
-7.838435098564066,-2.0272813891256103,-0.7996585435127451,A
-9.228769953452868,-3.18377994603053,3.292628733813335,A
-16.87594333152712,-3.425848922484698,3.682264551186031,A
-14.177560245081617,0.3506982049145219,2.0641503116977846,A
-9.973209194347357,0.63407973725455,3.041168395657456,A
-10.287627106949433,-5.078159769840073,0.07901889677135081,A
-8.029944110508513,-6.421321334677001,2.0804699458159015,A
-8.492090743092557,-4.539453779330437,2.5678379602659307,A
-11.765707710462447,-5.957051706887305,3.076984217599433,A
-14.999174147348134,-5.101938496331854,2.407209932656519,A
-12.719811738392593,-3.5749350408829725,1.9178870430124333,A
-14.704624370487897,-4.476337579556451,1.5005986035408476,A
-13.519324233514226,-2.5371326154081397,1.3233652749874425,A
-11.310866598511826,-1.2364997694257862,0.20941179647059344,A
-9.932513180945588,-1.2682979895769255,-0.09210472333425651,A
-8.427886483841078,-1.0552157791523948,-0.4488264305609904,A
-7.009223531263715,-1.091280226293446,-0.1183981100230688,A
-6.294787686653682,-0.9809843471680306,-0.7215411784060783,A
-7.036458739288813,-2.233948950107818,0.3977901585334636,A
-9.411096373141325,-2.976624252208747,2.116655706567875,A
-15.48857010550161,-3.5628728067699824,2.9806019650869686,A
-15.646531045656838,-0.4393589781462215,0.4486422335455284,A
-10.702493292128754,0.8258170901581943,2.232943632463462,A
-11.159382272674067,-6.086349206697207,1.6173045078164534,A
-8.468090487596788,-7.329186226766161,2.541163709619437,A
-8.366112241997136,-4.468368582348467,4.098514939289088,A
-10.879540759825764,-4.025844728078379,3.6620055273308325,A
-13.971527838478423,-3.679360322506458,2.3920774158472584,A
-13.188971749207553,-3.983814593982614,2.655185441408953,A
-13.693448397652471,-4.477286523998336,1.553783038311096,A
-13.976053241566419,-3.051916645807421,0.6145846050183413,A
-12.25686221415493,-1.6183070977259473,-0.18932964764296276,A
-10.22102177771979,-0.9229956645972871,-0.629224546686836,A
-8.21899508518205,-1.7385222417915893,-0.07990223179971058,A
-6.617070729858008,-1.8021307777783029,0.7101516397556681,A
-6.004908644244095,-1.2532419709590399,0.7267525088916017,A
-6.79849279002056,-1.1172930110011348,1.3163494760691843,A
-9.483772205397946,-2.3769117173269745,1.9191162525805066,A
-10.576106172854288,-2.064102739473249,2.1481841587270893,A
-14.892851522891887,-2.354325703520994,2.064706282718544,A
-12.530620562953375,-1.4278366536722515,3.0152486619011483,A
-11.17807126511869,-2.2074615020848007,4.539575232695741,A
-9.835036532490161,-2.9647291271456107,4.724726907692856,A
-9.383666097299278,-3.224593201068488,4.844553218230804,A
-10.360666480779656,-2.9434634270883557,4.846994895349293,A
-12.323992625847174,-2.317181758141108,3.848258551197286,A
-14.21956216676159,-2.6965330674827523,3.253667603342362,A
-12.159496793266154,-2.486438018778165,1.0980285033525456,A
-12.429088632024358,-2.2495414008704455,0.6376774423150182,A
-10.40589445045052,-1.6362639928870606,0.36496491411591714,A
-9.175815121968185,-1.534686734684561,-0.5424580240059655,A
-7.963334949090781,-2.2491280745133797,0.4625660499109459,A
-7.00449466729254,-1.6920932591889075,1.2300914692973859,A
-7.248193607366299,-1.0086472797611399,1.746383586288515,A
-10.04341184628198,-0.6937055636421428,1.9629725374319027,A
-12.012814323476876,-1.4732067303005434,2.1550128599947436,A
-9.465370540767019,-1.4849629604412464,2.3860521917171686,A
-11.913294779919049,-1.6586283713008176,1.3432903564749668,A
-10.165658925195086,-1.6961564664339124,2.395725654257581,A
-10.712322412989021,-0.2535123963922664,2.5689239298974833,A
-8.449860992345029,-7.366493116498037,2.251995202578163,A
-8.363269453703595,-4.599845355723901,2.545857050827155,A
-9.640146571741695,-0.6634949919590644,4.824481561114706,A
-13.402581457548203,-0.4458522309768174,2.4923341325860897,A
-12.707137661978805,-2.917248042329866,3.500746883741437,A
