accX,accY,accZ,Activity
7.719771151128384,-5.064691240272208,0.7820254544278896,A
7.03330756765394,-3.7880593189943887,0.7592495657654137,A
8.246566588668573,-4.097713588817055,1.2326591105706515,A
10.56656269846082,-3.6552118293014297,0.7381188265081062,A
13.349761371015674,-4.041285166613555,0.14793446251122389,A
12.08897728473902,-4.585946818747224,0.08932230938819351,A
9.13297072327617,-6.183103447752932,0.9598811586029221,A
10.744268004882514,-4.760458024977084,-0.20141682921802462,A
13.48153868189369,-3.60561047862614,-1.0183558250593765,A
8.557824035173384,-3.9377850437918007,-1.2870938085499166,A
8.342638284438607,-3.479186481397374,-0.9327714325119452,A
8.514433358768018,-1.9537274929872668,-1.353498595298077,A
7.819391940734061,-1.4628293028275126,-1.1324552009840223,A
9.507610277538879,-0.8868486434795931,-1.6482582523334408,A
10.05759538705427,-1.500882567212227,-1.3947532875933888,A
11.550303801912642,-2.6984232483002044,-1.4227948740485115,A
9.979761371483004,-3.0135410192686067,-0.9397586804912003,A
10.29761093832287,-3.6213221239879707,-0.3126540570561949,A
8.74998754512867,-3.3622678144328724,0.2938450085837686,A
5.711205418055473,-3.7817036492074805,0.7542978294071369,A
7.762760848355383,-3.8774239080063344,0.6553483932710109,A
7.780129549592341,-4.120627558818175,1.180319995313555,A
11.755406104652781,-3.656176659241522,0.5693439432593307,A
13.307293641684375,-3.8735141606834644,-0.17015998983480388,A
10.671906669235137,-4.691772786092135,-0.3382984881012097,A
10.336500970466222,-6.4262780489801195,0.769767195008208,A
12.979837608768197,-3.7075998440007667,-1.3159037912844416,A
12.151617324259536,-3.59951847881976,-1.5409085801052262,A
7.91259613228055,-3.8105269261910975,-1.7500140174183758,A
7.972400063611876,-2.2394793020728567,-1.297362547231762,A
7.342995114397582,-1.7887973569006557,-1.5329094496016198,A
8.137507261629112,-0.9908612733420101,-1.5456151425481441,A
9.559048912924826,-0.7939312229378522,-2.4490006694677966,A
11.22328382388227,-2.129724788546899,-1.9360982362042403,A
11.298779775884347,-3.046716479434664,-1.4160194135712647,A
10.138465568989961,-3.8655389068023682,-0.03256993286119336,A
11.257153278350687,-2.6667031954854377,-0.5092657134366129,A
6.602806460655784,-4.143819048007734,0.4807595285355309,A
6.083067324647975,-4.2607796169656345,0.7688261780387984,A
7.33638790235336,-2.8871460511792835,1.1562602497273302,A
8.200866553169377,-4.0016071139761875,0.8312465250457536,A
12.244073076642824,-3.499834609727913,-0.003291121929492604,A
12.521371513725564,-3.799106942272641,-0.6342965166442582,A
11.831613341887035,-4.990719811652837,-0.24762753306173776,A
10.570803334454153,-5.609685294907603,-0.45717234199879336,A
12.519375291933843,-3.546781995722264,-1.6565551374286343,A
10.025980448770076,-4.169908555257733,-1.5340322237313568,A
6.844008162967548,-2.7678100487662536,-1.3517878212129275,A
7.147809424548444,-2.66668317168606,-0.9831372760876996,A
6.976782448003649,-1.232072776189579,-0.9219059051152932,A
10.114051917487883,-1.5833595323401666,-1.2973696508562578,A
11.575082867930037,-1.8617332633907995,-1.8593123519186023,A
12.05391175057143,-2.433574273519894,-1.3596996212135941,A
10.718067614407763,-2.382904510843491,-1.208200606881424,A
8.95707750379391,-3.330125165502992,0.36459967475104266,A
10.227337310019722,-1.7189796761412464,0.05547396160359145,A
5.784519784469278,-3.4619051298433794,0.5119850418418977,A
5.550582434364633,-3.475126855788092,0.6677769341083131,A
7.6089487378935035,-2.861350941437383,0.5252090898234707,A
9.141670806384012,-3.6782241641905165,0.4613875290593654,A
12.844601615163294,-4.0153999019884905,0.418439851632411,A
14.030956576457656,-3.658327031747845,-0.039429404800756164,A
11.904138133292127,-5.20429894640026,0.9226392485389209,A
9.05143570800729,-5.096324529234019,0.8188623668912445,A
11.928156084343835,-4.119748597273541,-0.6556712917149841,A
10.580905594476215,-3.9565991776660216,-0.8748532553616762,A
8.258931698784691,-3.4900661410465394,-0.8880953442293508,A
7.829124055513705,-2.4709472080609536,-1.2206305800314752,A
7.531459374418322,-1.5925530270507637,-1.1545711526008409,A
8.254248734984936,-1.7411643183896761,-1.3472108606500144,A
11.487039074840505,-1.5141904970982574,-1.739463481164439,A
12.154435822633127,-1.8056548446360383,-1.4630528589765535,A
10.418860003526136,-2.9045179536932935,-0.9113024437569432,A
8.867269224973766,-3.688332082758798,0.3030478347678172,A
9.569439889471912,-2.2755533177695377,-0.01796830648228311,A
6.250393228707738,-3.236288339642731,0.37594985407453024,A
6.273250827645647,-3.8678542015503967,0.4296142071568783,A
6.959707269331724,-3.0840881101099287,1.0669273439202636,A
9.395904184317425,-2.9625444319511813,1.0993361888298052,A
12.179241479058645,-3.219339690310058,1.0573067498878603,A
13.719105047311169,-3.259689204755166,0.43118709689352813,A
13.261450740021457,-4.586141529846333,0.760242389046292,A
9.388728111791824,-5.58087951776261,0.7295197946360199,A
12.422737685383265,-3.536152981247917,-1.183534207661021,A
10.525665604753252,-3.633506783641596,-1.3459233483885007,A
6.648383041479802,-3.0764453923943407,-1.2772985053087047,A
6.935512059155064,-2.7080766441441795,-1.3634901379002369,A
7.24665341981783,-1.6400958496607068,-1.338019643791647,A
9.615090202833407,-1.3476542591326655,-1.8381207006673481,A
10.976148558281498,-1.1048305497695974,-2.093575369612826,A
12.634857621455232,-2.750999415455398,-1.9965180632298085,A
10.68862246318431,-3.480650041966561,0.26484138705521276,A
8.919678134697124,-3.682559749188924,2.3844250298415335,A
10.61262635522843,-2.954609187610734,1.5416510005618842,A
5.273017339727923,-3.686851085028148,1.0725116515647397,A
6.213762879322856,-2.802023259074235,0.9602822566696112,A
6.783590251972779,-2.7148753232103338,0.5682144639643766,A
9.036722576968156,-3.378778534418085,0.19313891996067492,A
11.889533943352081,-3.58016428890659,0.4880337215825897,A
13.25349632364217,-3.3722810277485262,0.1675354349671937,A
11.941738970567707,-5.253678859488966,0.9878900579515113,A
9.715400732974063,-5.676999334483288,0.7549176161074637,A
12.819202027912782,-4.068715490117825,-0.3927499919770366,A
9.888081680634524,-4.022878115063951,-1.0705852365931687,A
7.1726360912035885,-3.7003983880182973,-0.5040702063529248,A
8.196380482441464,-2.2403278320802227,-0.9796210854163099,A
7.558192712526749,-1.7120374299508403,-0.40584072122813514,A
10.02805286330986,-1.3181726278471249,-1.409703519942264,A
10.101106107371983,-1.5330123604221664,-1.3556651844184542,A
11.677316147643552,-1.9780066263435003,-1.5086295104711147,A
10.545524275623844,-3.2042970065425824,-1.2506960202329014,A
9.54422971788959,-4.183199767453113,0.5335233874190097,A
10.402874503279511,-1.899387013788752,1.1129725086735422,A
5.795397392247885,-2.3109016191444094,1.2094944537203258,A
6.167487779555081,-3.6276037531605696,1.0937116803243976,A
7.3107669279025576,-3.6248554633337595,1.5867742639670905,A
8.605415702356252,-4.024337524670318,1.3723906014522882,A
12.270743585073292,-3.4364162986944704,0.43084334084209286,A
13.083975294947088,-3.4844753438158786,-0.24347734796475454,A
13.032076748498312,-5.02556021435068,0.03834867982898333,A
9.009396385115647,-5.3927340993451445,0.1703095765043362,A
12.373328434354061,-3.4228896359117575,-1.0914797432208379,A
10.107549239205033,-3.683772869040926,-0.7372954197251838,A
7.022650478592639,-2.766744606221171,0.3859656681738393,A
7.137005308674877,-2.4602206802071516,-0.183855849102886,A
7.424668341919235,-2.31916450696597,-0.7470762351886748,A
8.677173869604664,-1.682216966119264,-1.4461081316780746,A
11.187498727977703,-1.2236852947146926,-1.7859124928748906,A
11.541224967458561,-2.0303796004621746,-1.3379600846676951,A
10.941940539423177,-2.979783306140781,-0.71512866524559,A
8.952048260448247,-4.313124076034498,0.7265907841780099,A
10.432963066666408,-3.0945641934987798,1.8764879635002947,A
6.836291764644406,-3.1429764758247014,1.9423166906914981,A
5.825187054793721,-3.149155575098571,1.585130102909176,A
6.931189212470213,-3.705860342925474,0.8728651239996484,A
8.807631210947942,-3.2472342642250362,0.8236388042348047,A
11.50345432842428,-2.9203091773919714,0.5782090595637379,A
14.56754435530784,-3.5894750519236354,-0.2102317119871414,A
12.387412709957655,-4.787036157658853,0.13956338028818252,A
8.8171315085163,-5.050345459011831,0.2787532224936999,A
11.632998163239577,-3.408159006101266,-0.9901988458774708,A
9.345387327268508,-3.5951324304433876,-0.9020310076774887,A
7.174439580863255,-3.3683202948283877,-0.8918942373493944,A
7.238324620120953,-2.420277753350199,-1.0117868023801728,A
7.06780629879619,-1.9852504815044287,-0.8835043089134661,A
9.966783619900829,-1.9072707487128586,-0.9377307071064066,A
12.223638052370559,-1.2687098943725417,-1.5306167349801758,A
11.550289090578291,-2.4962952877441493,-1.0651643872613066,A
9.259250456195343,-3.1777215990299688,0.11881808099067906,A
8.800361403884638,-3.634352846696108,0.8861699860115619,A
10.28392473943093,-3.072477047532153,0.3938650176889792,A
5.841802476537121,-3.8698583114855305,0.6231971495033531,A
5.9542536488780415,-2.9626761331941323,0.6707983136984996,A
7.002151421124851,-2.588828737812244,0.6293880746370806,A
8.93404997051776,-3.1652952236733563,0.6873790988371923,A
11.228426954079467,-3.2444923550771594,0.3814130964008202,A
13.940311722773325,-3.6446473895751317,0.16198739740231657,A
12.611068604828613,-4.720544702840962,0.48466948699395385,A
9.01981586027007,-4.9767876975868175,0.44950688375573156,A
12.046131837629042,-3.5753739833905147,-0.7751034114983301,A
9.679338935741665,-3.6217377645772273,-1.2783212939765756,A
7.254485869101144,-3.720074780864072,-0.8104513407406319,A
7.325701530720996,-2.6811090842607057,-0.8457002422139461,A
7.436589242714168,-1.721790802562155,-0.7807540073763823,A
9.672326331428101,-1.5579589624782124,-0.8927481157656791,A
10.883389303582065,-1.2171608472012725,-1.337401404821578,A
13.10929461575646,-1.8634943983356358,-1.4516687611812575,A
9.73708311145089,-3.6066716744809533,-0.3231089179713135,A
9.925567185884281,-4.052909637241251,0.9548794160453378,A
10.662780429612532,-2.1283186273161347,0.3116160951302498,A
5.847484218623821,-4.26011445651986,0.2520649737404955,A
6.301811873033413,-2.790684992524554,0.3721929657417536,A
6.181711657318472,-2.450812172000789,0.5376443278369168,A
7.988996849969513,-3.125727050905831,0.8621014595204376,A
11.95476325953875,-3.3353222833696514,0.9089445961773682,A
14.150574464547388,-2.4852348989271458,0.0175881737686754,A
11.242137039805277,-4.0647262292655295,0.2710898830630605,A
9.32737121852972,-5.242132074541337,0.8812193991219369,A
11.929710193275099,-4.141713555947285,-0.761285402970016,A
11.317013354752184,-3.360745208254484,-1.6432218064500004,A
6.83802373036498,-4.71153834320314,-1.0051737960363742,A
8.505038311289425,-2.207596048478041,-1.3574120909061365,A
6.894311664659885,-1.8285277619113578,-0.9888845387110506,A
9.271800766901885,-1.0777673773543939,-1.2721109884046575,A
10.20793560172036,-1.5795747285761306,-1.0864741003945841,A
13.065175838062194,-1.1513722294049307,-0.8388926877401749,A
10.787621528348451,-4.559974890459357,-2.290616506930627,A
8.70534615215331,-3.4025876534531454,1.1738451019974412,A
11.81252271700106,0.1605283465887857,0.23154799883760463,A
6.105844680314288,-3.8389342317014536,-0.20278115295616428,A
5.423405783066817,-4.413804262525503,0.22686022932239536,A
6.912070303869046,-3.1758053946033264,0.4901918132034374,A
7.823468703683967,-3.07803251758452,0.6809156615067737,A
12.663466552116642,-3.814904261826778,-0.188180454814811,A
14.779949614188704,-3.6520135339268953,-0.8482405369003485,A
11.844928187616041,-5.351787344660504,0.43786521887437246,A
10.336181424488432,-4.8360842677414,0.1331986254396351,A
11.735456469277798,-3.291513102714964,-0.8641202293095424,A
10.377278111281601,-3.586384054993629,-1.3402314816857028,A
7.10390256292744,-3.0957074032376695,-0.90650186193544,A
7.693107620599338,-2.055635444651542,-0.8850549512828422,A
6.8457129057632375,-1.2516462146993028,-0.8252726051093893,A
8.753233728319813,-1.2010624894753512,-0.9937242086978627,A
9.853085821952657,-1.4793492938558017,-1.075383215426334,A
11.7508551566976,-2.9268855277361343,-0.8624641436494418,A
10.715814357550837,-4.11215194846225,-0.0316900923642329,A
11.355183097351256,-4.558672430554166,0.47202297722808517,A
9.562313209817445,-3.162351750158142,-0.05087942650912674,A
4.8092972409570915,-3.934682788621658,0.366971079831698,A
6.172586942949947,-2.818525767199514,0.24617146763883704,A
6.728331067204403,-3.158437948449761,0.6564446958711848,A
10.474997742483673,-3.663525109310469,0.716076441964155,A
13.312257512929483,-4.447780223614157,0.2080280762163815,A
13.694633169584332,-5.249852189843935,0.8810191644130446,A
11.307095889022198,-5.1920084763661425,1.5384891944550896,A
11.513100844050095,-3.5531110031963706,-0.19840987456978182,A
11.751223440548983,-2.9662060930264262,-1.2467577277859132,A
7.662395963489505,-3.6213058696913825,-1.4653654258415592,A
6.522876226135094,-2.484742800874397,-1.0256335647853727,A
5.9281240993675945,-1.6113853573495267,-0.8844471299093696,A
7.035932171475678,-1.4915913459484111,-0.625820459409658,A
10.153740968124255,-0.8749416179036494,-1.4843376564361752,A
10.979729372971656,-1.896485976824221,-1.4587823397152015,A
12.974656123273979,-3.918424911723089,-0.6840873640853391,A
11.43073619390744,-6.129608164269945,1.3025080347611664,A
11.694541403944589,-3.7628565271896424,0.968596772080844,A
7.9711987584320525,-2.8720400714662495,0.7648334984201997,A
5.721967675771641,-3.942120103517332,0.4656205611365327,A
6.936867550168182,-2.737671921554636,0.39539834613705116,A
7.562821414858146,-2.8318180912543998,0.40439769368909556,A
10.977426111220108,-2.733551438830836,0.15410593068525674,A
13.177464048198537,-2.6922746248457567,-0.7355775576260393,A
10.637810735877194,-3.6002096122111693,0.11114324506479242,A
10.09093838922249,-5.104583216834309,1.0205105185125019,A
11.296565076056691,-3.226125001551184,-0.2799527816887622,A
11.458266043147125,-3.468738928249589,-1.1292448212670758,A
6.468504007776047,-4.009296454074724,-0.8580565524343395,A
6.634595478901362,-3.070217809658475,-0.5148421003107175,A
6.570359221343551,-1.9361025151834736,-0.33359049190634504,A
9.159567941607339,-1.919903057929709,-0.916824878763998,A
11.665078326685222,-2.136305976610223,-1.6589461846014795,A
13.9512709161086,-2.570375258083089,-2.2877357449660787,A
10.46850061536771,-4.008866601501275,-0.54196139360872,A
7.602411465470794,-3.785539185268022,1.5117539642536908,A
10.995986788393177,-1.7084463261434641,0.827251392881655,A
5.832033486864188,-2.1251447403561508,0.9042255844621281,A
5.794826743309384,-3.2104869981685615,0.45387213219001915,A
6.000937393243838,-2.3092179811847986,0.7933275841742972,A
8.083343478839131,-2.6770104462013156,0.7157641037480945,A
11.075017324596418,-3.3914564612948777,0.45399560769948805,A
12.933873052375047,-4.253032310704218,-0.09080451402330872,A
13.615007950706294,-5.4320510906452615,0.17751164345680967,A
10.46624859494872,-6.443227554741372,0.5266569685899911,A
10.78333710772869,-4.1751632639843415,-0.3431712711383187,A
9.92959832711149,-4.256261543076907,-0.5854265312629012,A
7.1044929949568525,-3.4995738730192687,-0.466810374409635,A
7.5381892080408335,-2.748487127644714,-0.47157137128573917,A
6.980953770202293,-2.066495124935401,-0.4395505288235061,A
8.317814912020141,-2.129261304841372,-0.6123972377676032,A
10.859942254551438,-1.8789615860130915,-1.2301673967987252,A
11.975960691556722,-3.1744836623708217,-0.5388160223020101,A
11.279628081713085,-3.5749186509997006,0.01411193187567141,A
9.1377624615924,-4.273645385068236,1.098001005859645,A
9.788127986102792,-2.7070959626561777,0.6747348835471066,A
6.263887341969694,-2.8057245918066283,0.7671998367257548,A
5.0913912448121295,-2.7545366647006335,0.3619371626075947,A
6.785443718147587,-2.6237094506617433,0.537162535860349,A
7.247699326170678,-3.175795388134523,1.0849359743247429,A
11.527551629200879,-3.3015390116190115,1.0141094312565269,A
14.01367529625832,-3.5026834207468385,-0.009525002156374139,A
12.94443787388238,-5.474395002442693,0.7678293980044754,A
9.896083361241509,-5.198183503458798,0.8321304116103928,A
9.524640535181936,-4.3058780426775,-0.364196992268446,A
10.184895202072193,-3.9635199754432793,-0.5369697643066723,A
7.232037015096405,-3.3366771266760162,-0.5684259883645767,A
7.647121028007136,-2.9477587742778226,-0.5923134810586759,A
7.563922807471071,-2.130333856289574,-0.9777896557910567,A
8.236639612424867,-2.048945429358021,-0.9256512259300814,A
9.985508007360025,-1.8217034770479323,-1.2457502268142957,A
11.679315051229935,-2.658070094527901,-0.6489714837367271,A
11.547119660383535,-3.3894213224057457,-0.36890474699665915,A
8.845859929612153,-4.71324496951913,0.42594492509258003,A
10.501870009446279,-2.9415665500082286,0.3276890043474345,A
7.4856471580690895,-2.720968486804011,0.24599633905707996,A
5.327690298228998,-3.2087962354434314,0.17361956552424354,A
6.540487347181991,-2.412977705436288,0.2640133538667521,A
7.362326801352398,-3.4098517887988984,0.9716447619151599,A
10.959135639775095,-2.956367296172971,0.9595778876271629,A
12.185681529561704,-3.8313591963230995,0.6691064710869985,A
12.869386855524862,-3.9518728483785726,0.29183831094920615,A
11.594101496973924,-6.313258343808427,0.4608111574747021,A
10.474611477695346,-4.5536901919691175,-0.416627921689584,A
12.055909508179635,-3.572954241909283,-0.896741243103189,A
8.14593841173829,-3.747306287868321,-0.8426121147662365,A
8.676318730037668,-2.5421089841640847,-0.6609986881980985,A
7.962076082018765,-1.3711954620036957,-0.8245010693178882,A
7.754462444315256,-1.1985307486254448,-0.9277711232520657,A
8.74224237429578,-0.8760142717082929,-1.5198367283843581,A
10.188384801630866,-1.8820838077192306,-1.2272746789821418,A
11.778519034892033,-3.311677838309485,-0.4268760919556698,A
10.676294433341141,-4.777731052839202,0.7711939365815889,A
10.73196164577654,-3.8001690952616656,0.7495589861512472,A
7.463905039572321,-3.8787570936230447,0.9548332920920883,A
6.3400009945480695,-3.4704510998696114,0.6700035537963843,A
7.021836332459656,-3.061655078432537,0.6644391256030666,A
7.627221362498962,-3.450545909105213,0.7388452987758769,A
11.302872469397677,-3.058809621739922,0.5714260624729417,A
12.644911747581036,-3.392860906640386,-0.2416031988607619,A
11.445772442758194,-4.345521083820987,0.2476068965347352,A
10.243244431968566,-5.675921393716607,1.1168657207887447,A
11.572657370477373,-3.9713738112636277,-0.309831219488233,A
11.153940801917079,-3.5147449454768402,-0.9122428977319631,A
6.953395020644055,-3.4482874342261796,-0.8042217270674062,A
7.2621676581018955,-2.2545562204611436,-0.747843953121512,A
6.961008060747423,-1.6031476833497569,-0.7672766947438537,A
8.29769561792345,-1.5232571591134152,-1.2839871856541605,A
10.497865186650222,-1.3747627161803253,-1.7728852233744543,A
12.25787051285066,-2.0611501565552155,-1.6518415298411822,A
10.790524936198068,-3.479607077489354,0.0372741455705772,A
8.300703718511775,-4.32991970548607,1.3129450559728508,A
11.722343986421997,-3.5158781658917646,0.586937565812271,A
7.166335647899446,-4.0107387887181245,1.1140395939643066,A
6.319628834623442,-3.0768830320246217,0.41382231266183117,A
6.4491205294745315,-3.2592154781546334,0.5118638396220262,A
7.813838556352904,-3.329111133953008,0.3558813302615402,A
11.545959448472448,-3.328763380167068,0.025868073322194412,A
12.996721466446466,-3.637063258096565,-0.5365899688155964,A
12.654905784506413,-4.482741971910062,0.3305660834861791,A
9.324113705391389,-4.7991840877898815,0.4341374468352833,A
11.440520932778188,-3.792509676509958,-0.6936167228707297,A
10.245680965931086,-3.6296153522228307,-0.5900003559388888,A
5.620781641896947,-3.1030422295434668,0.022482946259147263,A
7.100402770037729,-2.4484046377527067,-0.16445267682981543,A
6.871843651004706,-2.099272037277173,-0.5099922132901077,A
9.446517236191243,-2.035854111958669,-0.9908934086105553,A
11.364161991876259,-1.9860040359495499,-1.527321895908654,A
12.69630695385685,-3.08164674943635,-0.8379259597525177,A
9.291308797206966,-3.862444438478233,0.3640920676166039,A
9.49337559730782,-4.341267225620253,0.9983472209952007,A
10.709754317102782,-2.3871247571399197,0.47384584401610186,A
5.943454704445398,-3.0311750662421413,0.6996574501527859,A
6.276532713412177,-2.3983723120790685,0.4166313943079896,A
6.26971633819642,-2.0497631620500814,0.7703133980261566,A
7.2753084033687125,-2.616300482454256,0.9826628860113874,A
11.29230306874428,-2.5277455013729746,0.8283844524361884,A
13.72028826629234,-2.823273891534424,-0.03263277239822698,A
12.3475747743986,-4.9879250801256045,0.29464261029376604,A
9.422360669035998,-5.878694224853009,0.020628441580960524,A
11.597507121949468,-4.458652144464066,-0.7910485043830204,A
10.273407126382303,-3.8345317844422753,-1.0626716272627597,A
6.4896165874762515,-3.9289549972928577,-0.5107126252696078,A
7.531971700358838,-2.693829073382135,-0.5463093194553004,A
7.414461504230968,-2.075390048803186,-0.5922314517472872,A
10.241470357578406,-1.9139264247619883,-0.8880547660663962,A
11.92712276002854,-1.622490157933211,-1.529821615939409,A
13.182013139408534,-2.7307860968048026,-0.9748859722045851,A
8.776647444796144,-3.4936336860094013,0.6328173832502343,A
8.61539504725718,-2.693953535563229,0.2902360502388825,A
10.460015714393572,-2.4913977719639684,-0.01735456984132734,A
5.471905036928861,-2.997887702926506,0.14892969459245814,A
6.32657722061805,-2.781755285138479,0.039585050065515055,A
5.556971023212874,-1.439667163141703,0.31860639477249275,A
9.060002837397532,-2.0922052773125133,-0.1321469221300543,A
12.02921394566109,-3.717052372461768,-0.0468480133659858,A
14.24623780446375,-4.170198655579826,-0.3153743042105037,A
13.170679932013458,-6.26503146232248,0.3288691727975451,A
9.197563542213695,-5.9435910304415165,0.9776608549063632,A
13.150011953192825,-4.454021865835299,0.028337473275664857,A
9.995271358527079,-3.685633413988232,-0.5757658176170894,A
8.605116353602297,-3.1427240965175165,-0.3274964014432693,A
7.734209087167762,-1.9995488015866572,-0.5948387292373648,A
7.626175533170899,-1.289102647202389,-0.5133990591773537,A
8.491723020041928,-1.0318672833969333,-0.9051470007931561,A
10.325149655300672,-1.042647569949075,-0.5766907641055876,A
13.563843069292664,-1.6796755709102587,-0.9953583747458896,A
9.469578109898661,-4.079219639319955,-0.2299124240487238,A
11.91948496801467,-4.276175743706681,0.40675327821536483,A
9.01456309688198,-1.7208073549566099,-0.39693612911469817,A
5.159673227107622,-5.084733564970385,0.17964553365986902,A
6.600152458731611,-3.206484663731942,0.37117649046553225,A
6.9907642069378975,-3.4941653317367125,0.6238990241034283,A
9.247861024684978,-4.1604010652352175,0.6846161119115177,A
12.122782438140698,-3.9364995192723167,0.36316218581985904,A
13.489841768890704,-3.9010119859850696,0.778315312986845,A
12.044186157182349,-4.449174584798225,1.1537444729276314,A
10.411934370092341,-4.731816827943552,0.1661264681829792,A
11.884987215488048,-3.9205512810506025,-0.8312459597388834,A
8.219265892979443,-3.669169224730143,-0.9208460415618651,A
6.11411591386783,-1.2236476367818434,-0.27445852826514,A
7.61747881496961,-2.2291996592156464,-0.8927317721125507,A
6.446772163886992,-1.9500458409907617,-0.7558751480030651,A
10.002085417046755,-1.9264679765112749,-1.172544189010733,A
11.5274682230715,-2.1687770788829974,-0.8919825223010225,A
12.272294995241975,-3.0687276648714277,-0.22775117989971974,A
9.492733930519378,-4.027437710237258,0.21901998630486683,A
10.773298005247943,-4.3759808151792265,1.2632341355842223,A
10.22507836891022,-2.463451976208537,0.8363267317703198,A
5.739503192674923,-3.0109355551098744,1.3627812961435202,A
5.90733232600352,-2.1167289520467416,0.6683970100480486,A
5.470885107438778,-2.5168807378347617,0.9248660580592174,A
8.982705447461662,-3.6728799003278967,0.8789864173999977,A
12.382073836558746,-5.281317621480428,1.2364664392286169,A
12.268734763969293,-4.3018877428335225,0.7648399832130941,A
11.381588137866157,-5.140730678327857,0.9255446222349267,A
8.90440055195903,-5.1961031796604065,0.5083266363107953,A
9.81616687754695,-4.334813572418339,-0.268397995375199,A
9.289615804247772,-2.374722887714793,-0.6543266229919622,A
6.092414196245746,-3.1952612908771743,-0.25224115010782927,A
7.381724896080515,-2.1966897653056594,-0.2568799681692604,A
6.786246220954913,-2.2964953247358997,0.026118277245484562,A
9.278223266604442,-2.7482853698287224,-0.007780243945087055,A
11.532060929875986,-2.9660544997655585,-0.10716313911829212,A
13.69177782977043,-3.6844108152230506,-0.2584735764904901,A
8.949028945589813,-5.183054900543207,0.2835172256921822,A
9.911401706900058,-4.213366042411761,1.16088641470409,A
9.083550229576717,-0.4225425524474788,1.2307671275596894,A
5.260637976672049,-1.8441661534050708,0.4618128169627919,A
6.374282769389878,-2.244475361452447,0.17800064133073643,A
7.866461535916523,-2.2590930662498447,0.9850930503618798,A
9.076945205374576,-2.827881006955349,1.3710011770904054,A
11.875703700380232,-3.016856120814575,1.0466651318825293,A
11.810993765740626,-3.8655589509321886,-0.3240236567427979,A
11.570148549211797,-6.976766077989011,0.627273486490592,A
10.606286764665821,-5.374146148941246,0.5926981339568628,A
11.517662623087451,-3.216813609063341,-0.5583951524596847,A
9.835734236837942,-3.263226526184032,-0.9900355324694458,A
7.803761796093015,-1.8032050741855272,-0.9751557869547068,A
7.466225110330093,-2.0285521154714963,-0.36697579935276675,A
6.414021584217477,-1.2242019827912967,0.017898212550852523,A
8.238430092622679,-1.235703343813889,-0.28086607892134025,A
10.732374955102188,-2.182121863779728,-0.40114094062224365,A
14.028760116662434,-2.682280725965594,-0.6334625982060288,A
10.9322342966197,-4.845823597434165,0.35894705011941175,A
9.395621163800334,-5.110247750112962,0.5915363661439424,A
10.18883013457461,-3.094124079813148,0.2847240775463566,A
5.092468262512692,-4.337148515961823,0.20651449994803994,A
6.614564812570663,-3.3482655248546394,0.4422978836666469,A
6.496217571664099,-3.0586384638985087,1.379145911416363,A
9.615315571546029,-3.8247085737002386,1.675058822938315,A
13.352577123085124,-4.927257135116655,0.4706474322412231,A
11.996648388097107,-4.830228869775543,0.35726182008803126,A
8.357587494995682,-6.0367928901641505,0.7707192021868404,A
10.7435662485526,-4.358362544129598,-0.8095240043460621,A
12.966435715685042,-3.8515859774794823,-1.405666293307644,A
7.304913932870159,-4.091143428728564,-1.5383830227256499,A
7.0872671434396155,-3.157748789250713,-1.1521955004177655,A
6.692800833781364,-2.0575096850768357,-0.8501975811376274,A
8.48676110734849,-1.6729964042251364,-0.6399583626305235,A
10.15197494857434,-1.163691221563636,-0.9540979425048491,A
11.332029902438515,-2.2018954375190156,-0.47612919471684656,A
10.318766328023669,-2.99400069940959,0.2923995621110485,A
9.466241191124391,-4.416475467520549,1.1040889519684098,A
11.98946099936235,-4.975370879679125,1.316356718565145,A
8.129933549542438,-2.8685513407456,1.2369343658126104,A
5.464635376384671,-3.4306662203479967,0.5012174100286623,A
6.411285600446119,-2.9990157747444854,-0.01833026339057927,A
7.236303264791809,-3.3874815936602904,0.7585988097360975,A
10.440264416849972,-3.5846371086110245,0.5864819096676828,A
12.595502027313598,-4.273553275838089,-0.0914499653132209,A
13.727630630898027,-4.833939373790917,0.2430990645659266,A
9.646258860482293,-5.313985138986057,0.43321214848785056,A
10.40546363207766,-3.953443411446734,-0.4716105735433396,A
10.196149172240931,-3.856693111295062,-0.6435427171802082,A
8.239024922141263,-3.277391705111695,-0.6261831712566736,A
7.302904523741307,-2.9147322409870204,-0.5927853992724104,A
7.132203373347162,-2.240052884452616,-0.7746234040113081,A
8.37577809825116,-1.877966407629094,-0.8444564097370316,A
10.434100078584704,-1.410205238107717,-1.5329508882627116,A
11.642233413784071,-2.3815059166152857,-1.362841033229312,A
10.957596107781658,-3.181008409486469,-0.4502455783708678,A
9.418600189471844,-3.696594170293683,0.010672867884258386,A
10.899508688367941,-4.054299333248108,0.6133124727184941,A
8.000563870246886,-2.9261198310007663,1.0891454195900914,A
4.996727574604467,-2.56802628309286,1.1511170499067716,A
6.651950544368812,-2.1672793864353577,0.8284912888953612,A
6.317403162944021,-2.854041023051847,0.9713335024180635,A
11.064576507713625,-2.978785658653112,0.6960949755577441,A
13.029121418146442,-3.3658813588302117,0.27693911072581234,A
13.375488163752705,-4.024948602555677,-0.2598732999645437,A
10.394096265152143,-6.183961868220798,0.28906030759443124,A
11.863622237756122,-4.069077803365166,-0.6916788790512232,A
11.79617332436932,-3.6628463343687474,-0.9273629317226618,A
7.0059140530887305,-3.5991576736948536,-0.4924374126527795,A
7.887814285315178,-2.240565612268843,-0.5173441098904192,A
6.951909267943414,-1.6124739530538559,-0.7326677410901026,A
8.600016964557367,-1.5387463583077643,-0.953383355254864,A
11.066997175568037,-1.182986932439682,-1.7673867699123793,A
10.581706590185009,-2.6567512853800577,-1.003495415203479,A
10.43081422801877,-3.25656945312554,-0.21353111862137966,A
10.060249427619995,-3.7429469807689406,0.7105468464284693,A
10.546816529997802,-3.1351832796790498,0.8685994386987073,A
6.433863108778492,-3.031415267567568,1.2179331670050353,A
6.25106215983708,-2.856637028340685,1.1504538883899575,A
7.246418900559465,-2.5097385929274107,0.8351391870193953,A
7.300610292543686,-3.1059673453856895,0.8767929767688455,A
11.628206326320539,-2.8506034945614718,0.5073004908998342,A
13.387192217971384,-3.2564575842573045,0.03138419726106056,A
12.487374244269128,-4.414895161420833,0.36052794558343776,A
9.501941014654054,-5.5279840952889785,0.5401067524847024,A
11.276030692551494,-3.5624097875215273,-0.8546930687291054,A
10.174563992481712,-3.8534221659369368,-0.22925357279508263,A
7.251417414474256,-3.03284542290623,0.08249639457198504,A
7.650788998466552,-2.310868047044599,0.20506896503296085,A
6.914722584230281,-2.197421015200747,-0.26716341275287786,A
9.027244512339033,-2.0992468082207973,-0.7906648364053551,A
11.467168269407642,-1.3720906488454634,-1.7421172116570738,A
11.49736316143682,-2.5222522236819556,-1.0990530123096578,A
9.624989385946227,-2.5855825689488205,-0.38134497816348367,A
8.920934941745642,-3.191836614886422,0.028618691533030653,A
9.987069278976703,-2.82451406765876,0.6594647875667071,A
6.322865144922439,-2.1163635439156714,0.8959963414892752,A
6.7144819443735795,-2.4348747732424,0.8011841711365418,A
7.372778378380305,-2.826111446060904,1.0741298883969987,A
9.067265166327541,-3.0404353528338293,0.8504274930775487,A
11.929842459777236,-3.1185035238158294,0.35461416328193635,A
11.691194664739195,-3.78185407995039,0.13735412924182278,A
11.856985155187974,-5.325172566045352,0.9512305531453444,A
11.36842836890073,-4.748562945713573,-0.022902742540039954,A
13.66596705221667,-2.8107363219497383,-0.9588304425134971,A
8.876196347687312,-3.439453126711682,-0.8459071789306881,A
7.290157384986755,-2.5638319011878483,-0.42697424446135007,A
7.617985412185802,-1.0641328842886058,-0.37578163695566413,A
6.6491666455452485,-0.5551384190991797,-0.7187082395417281,A
8.229229125234012,-0.7773153047569769,-1.3153069198814662,A
10.936213094867911,-1.9556777159539767,-0.8574347329027797,A
12.717576631873284,-2.9451904984852204,-0.3873090690218649,A
11.683429403045384,-3.713049320874,-0.05425401922525023,A
10.722391423252647,-4.455171475321375,0.5250658206083054,A
7.2054857143846816,-3.8618985685570957,1.108194299089293,A
6.330884082958176,-2.907642079671633,0.7563036185251961,A
6.784892808312782,-3.567513814636271,0.7514571510042144,A
8.107435648409787,-3.1851405280363343,0.3577673728661557,A
12.68448328772317,-3.2693177123713224,-0.004431281401292891,A
11.30429286497714,-3.425375242771637,0.10150590902784007,A
11.819734391833412,-4.124734157684319,0.44526758800971195,A
11.040203122316315,-5.200982277118935,0.020692887549880856,A
12.535695550922686,-4.058464769723963,-0.49748089213445074,A
10.600163426756698,-3.3587727042538793,-0.38268905970167866,A
6.856047478790954,-2.771655452033493,-0.3150197262256166,A
7.881632379926691,-1.374784257219397,-0.8446213092327548,A
6.542903679189241,-0.9853986971931105,-0.42977940773653656,A
9.24524102865201,-0.8547337538508272,-0.998492905523824,A
10.156991028413938,-1.637279987856751,-1.726471900294141,A
11.625675314920283,-3.1361716661349615,-0.963925935508773,A
11.430679620875582,-3.883310148619924,-0.16623883133851838,A
10.600441698843412,-3.76381490632889,0.286402120533207,A
8.147582956175484,-3.452975511706076,0.5581805236285678,A
5.819043107417362,-3.0290733569918005,0.48201271636158766,A
7.1815458312203795,-2.93618779282411,0.5917860558741858,A
7.494260516160899,-2.738039816507365,0.585580042569633,A
11.07312570541466,-3.085067495823153,0.6196576089078276,A
13.952420753035714,-2.497468470654996,0.5985583959324402,A
13.702389570221083,-4.303082124300316,0.11007344355685418,A
10.459590747744073,-5.930279548273357,0.23980310885873318,A
10.223865109545995,-3.324421834054943,-0.6804001768272332,A
9.506870940272494,-2.969452132184253,-0.5744992366254986,A
6.703345303312601,-2.6920386375507572,-0.4112459682450141,A
6.946590495377454,-2.2534892761744643,-0.46594451845106594,A
6.867108152466607,-1.9690959901858986,-0.6021855016698491,A
9.243544852347632,-1.6047399722774176,-1.4355156049200573,A
11.3885546031551,-1.9391248974615036,-1.505087113426154,A
12.1497139789047,-2.8194854928382083,-0.7104601884791557,A
9.090795368312353,-3.2549699820496425,-1.0388186353771238,A
9.314327931500316,-3.568682993948127,0.42392807006466116,A
9.677561996137179,-1.7445066369741256,0.15840798278199877,A
5.9283148817454405,-2.4764228291478703,1.2366173130572233,A
6.72017955676115,-2.3432489944747577,0.9480796768723182,A
8.306260205804683,-2.947182935813116,0.971021342466367,A
10.025850066996655,-3.2592443790829027,0.6143259005876824,A
11.654126645165006,-3.2558501152484123,0.687401404534871,A
12.912817434426135,-3.4595021278738245,-0.20495916739646722,A
12.099982290360295,-5.648366184123198,0.7924314912413203,A
11.490556337598704,-4.972099268493211,-0.345106347412802,A
13.128613500750768,-3.2309839687269992,-1.1399127511115827,A
8.488684876262433,-3.276022401515273,-1.3105760091921241,A
7.3444869888958095,-2.936596741270842,-1.1792784709978186,A
7.48453407149656,-2.0551385186352396,-1.1890064092471277,A
7.919457193879016,-1.0098338675430611,-1.3360338866121586,A
9.88257304165259,-0.8538773446021555,-1.6983979689582498,A
10.503929146038292,-1.2503600792151273,-1.7207445689603307,A
10.90577899398317,-1.929293553729424,-1.1992259376211982,A
9.846402158706423,-3.450179146340532,0.23842764046452505,A
11.881518459828449,-3.9163340323077604,0.455957530254036,A
10.204851379853876,-3.7293559222659374,0.7047252757822194,A
6.23986935702289,-4.460362241299852,1.120398992224135,A
6.883395645308412,-2.601487014360258,0.6609557070956322,A
7.127206227428043,-3.479498144967446,0.7470654200349288,A
10.131450862495397,-3.260821664061341,0.39046128643044553,A
12.048422076495854,-3.7231005705219786,-0.517892253200393,A
14.146269341197105,-3.970003299204068,-0.6967743378342031,A
10.786198771126443,-5.473397979870978,-0.003639562330557134,A
10.656182874775698,-3.842574414653623,-0.25367492367498107,A
11.66983604202087,-3.5047042826715256,-1.0907923450837334,A
7.91923294931661,-1.9671748885169953,-1.0183173291501422,A
7.555944287706084,-1.8619460670462882,-1.0345631742151131,A
7.546073080013628,-2.2629668779957766,-1.5577896554597035,A
8.06932555571606,-0.9344617304685413,-1.2139415124278727,A
9.652556034909894,-1.1781692574539384,-1.5484709604868572,A
11.255957712729227,-1.6900886852266355,-1.362018215489782,A
11.352170079373412,-2.8576269241407553,-0.3482101086390992,A
10.242457378702444,-3.67708221950845,0.6943234318695899,A
11.271196759433469,-3.5949637265981145,1.2546092030657756,A
7.776206439830545,-3.6504035817773417,1.1346836477755229,A
5.543739517047936,-3.464471087329405,0.6078996586196482,A
6.653208567818715,-2.643698289797102,0.4126744061163855,A
7.621427642686189,-3.2527213003581643,0.3476218192423936,A
10.89577393725786,-3.359807835913558,0.1545420455265659,A
13.575336472942721,-3.65796625761856,-0.30026274201340336,A
12.434072288833343,-4.259898940314312,0.507947469369269,A
9.818040552056699,-4.906434206776171,0.997580893941281,A
11.312363702052357,-3.5691652060573555,-0.49487596936763545,A
9.88575230923769,-4.164207375532058,-0.45587474545280404,A
7.490790064764611,-3.454690848706485,-0.40650867792557027,A
8.213561161740788,-2.5147140808530355,-0.9558567798463073,A
7.487502756601294,-1.7174176875785712,-0.5120249701223124,A
8.39887766766821,-1.0753557692328137,-1.2002554700978345,A
10.36618344435694,-1.7932461387226435,-1.780844237936462,A
13.131108956844589,-2.7627146447330504,-1.9617664051616965,A
10.977131436681043,-3.9439566982374084,-0.3349964183200049,A
8.649551130429158,-3.796258214144697,1.2890450778160178,A
11.082018510140175,-1.3864807169290618,0.9603954266234939,A
5.208143025195939,-2.852078740820753,1.5073088730967399,A
5.3695178203766565,-3.3306000114068275,0.8079150327386253,A
6.130198534634156,-3.0414026616905945,0.4753312223214432,A
7.80467616528285,-3.284082963135927,1.0063008204535346,A
11.049968375899313,-3.5635066730614935,0.864511335559433,A
12.80392501513742,-5.562354531816485,0.5527881229463544,A
11.204160871468492,-7.272456128985677,0.18926555195229727,A
9.509530133330076,-7.725074654391037,0.06767515998713143,A
11.824994633781502,-4.8725772950299575,-1.0571591233826616,A
9.965331587059076,-4.970801632014945,-1.1081698479093636,A
6.233520633476923,-3.8304977556449495,-0.6624735235639055,A
6.75315662414621,-2.8213386566911787,-0.6692290094919927,A
6.614012103042091,-1.4598410453788755,-0.9892945434074657,A
9.454809675722787,-1.918869614433772,-1.0897770416509984,A
11.551039891707038,-1.910915251529019,-1.7975722282687698,A
10.800232312850254,-3.4057868596855445,-0.2990993138641073,A
10.611988936436617,-2.8096119075794577,-0.4061219412948744,A
8.772812600347162,-4.441086648512986,0.5496781604239932,A
9.533315804259535,-4.057508147287994,1.179635250501983,A
6.509963879507144,-2.620829779791527,1.2905458167881219,A
7.1980510728224685,-3.173272473882831,0.8584503406919954,A
7.293398326190328,-3.5182587071520577,0.9738017297174636,A
7.710696750871364,-2.3920725807978727,1.1575178748803885,A
10.410275004847682,-3.525438174602798,1.1366752663815378,A
13.353813848138254,-3.715093696499352,-0.13401366980983231,A
11.218549576622877,-6.287118068927429,0.5296633149957573,A
11.737069069591358,-4.838756520967342,-0.34891359845807857,A
13.232396429382248,-3.3360377719383454,-1.12640884559263,A
8.091519240974025,-3.5313241237215642,-0.49500051638200543,A
6.4462844401597446,-2.593662262122584,-0.050196554691904205,A
6.708013735127978,-1.6145974009302422,-0.2211379623465701,A
7.468425832840878,-1.5670866851606347,-0.419215465647973,A
10.16238597692032,-1.3307216250537535,-1.1519119603152765,A
10.607040117343573,-2.3914857432674443,-0.629766500554518,A
12.685721845447473,-3.131956745163102,-0.39305222934376166,A
9.805294547470979,-4.586913288003521,0.3614610777177387,A
10.200503238593058,-4.153819363292031,0.8199871853141649,A
8.18500656886065,-2.6467111024500847,0.4499937842008254,A
5.2492321683024885,-3.151910536646458,0.27662833927354796,A
6.324138749036209,-2.6303191905221865,0.020275007568297504,A
7.808899950973371,-2.9569519334276975,0.8792789311976733,A
10.893989005375552,-2.703987433252582,0.7766088185797941,A
12.23109166609101,-2.826757216784012,0.24130346945152478,A
12.465701013257455,-3.9615270874080717,0.19827489590543568,A
10.01416236997486,-5.415859403660924,0.6374819503844364,A
13.36280170837056,-4.284981494868837,-0.17636435346499738,A
10.498994209922927,-4.4070898515515475,0.22940430164098424,A
7.915878072032711,-3.104821604169769,0.10739639690593666,A
7.370646445280083,-2.571932606914246,-0.01896351921758326,A
7.163621584401197,-1.8164064660186157,-0.6185627575695,A
7.945350186643517,-1.661631953796012,-0.5246361837153433,A
10.246657859345818,-1.1013534332437829,-1.1740344537350171,A
11.803360370929719,-2.2013533045289466,-0.8160191929545509,A
11.95428318929004,-2.7389804018923525,-0.7130513542769596,A
9.075922814603786,-4.129900674917346,0.41359741248317233,A
11.23056782875983,-2.988760806012322,0.12024569835062299,A
6.1729912795235435,-3.1828619372768996,0.4470402390124337,A
6.396552985898885,-3.018761714018356,-0.15558977599291776,A
6.820069714702404,-2.6457050997758236,0.6212565942276084,A
9.219249279891521,-3.075367889639804,1.209981878296276,A
11.811654612577945,-2.6116818212297406,1.0912754487111858,A
13.201002009562409,-2.946463787703001,0.036076729892514016,A
11.027098700566986,-4.768024764685827,0.33078158386003736,A
9.612586440494624,-5.387563128991213,0.4082099041665277,A
13.198065687692523,-3.184521989854098,-0.7023230317407173,A
9.620372863429452,-3.838419899345757,-1.026377751809944,A
6.667495411839571,-3.8124608638532593,-0.16650135631306617,A
8.139441539552587,-1.4657002131083297,-0.6037069589109749,A
7.357172484335574,-1.5601247723950415,-0.9030835213532182,A
9.471355543007498,-1.5945982050236536,-1.4915686895422928,A
10.488290477305746,-1.782065449342746,-1.4942469527365916,A
12.467509119673691,-2.4266799217028043,-1.0449433183012542,A
8.791269157167592,-3.651744171172596,0.26537452245011045,A
11.192391063586202,-3.418477392878207,0.5063625636797274,A
10.242994398330184,-1.9625813802421281,0.12652985018778257,A
5.453392795066835,-3.4620004580768975,0.41624819787335776,A
6.4816923758763485,-2.5008370871134864,0.22279874621245935,A
6.422940316116785,-2.224878278514045,0.5323823883922086,A
9.108230712016542,-2.679533329800368,0.38158245127216417,A
12.13175574782856,-2.74640478664537,0.1940437443153713,A
14.032369433207393,-3.830531967019901,-0.10199866267097812,A
11.32977260645562,-6.902162978169887,0.07177229744533058,A
10.10045784359744,-7.015719378675295,-0.5221088758227026,A
12.721397968396486,-3.985119335220674,-1.2477477727679087,A
10.308201292492544,-3.8757289947500895,-1.3445816602804892,A
8.201908934599196,-3.320389190294845,-1.0425266772838973,A
8.605698099060671,-1.5328025768932019,-0.9518861115421279,A
7.679017082614095,-0.8104663111967894,-0.7664298839606579,A
8.531780840752072,-0.6575207566505408,-1.525231458633811,A
9.790672927475422,-1.1159023701139463,-1.9031032064346907,A
10.933974111333768,-2.7304493185423144,-0.47269055419076755,A
10.76003920799292,-2.3611301418973567,0.0927860974490462,A
10.909060559829,-4.095608870839479,1.0692197379523314,A
10.79121459873035,-3.9293701352901445,0.966853442887777,A
6.084116792753525,-3.3101909230284274,0.9063211720841934,A
7.007535926638175,-3.019635227638908,0.029506226113477356,A
6.611958935456278,-3.1386966267051366,-0.22099712101482133,A
9.685309912836736,-3.6593434977524137,-0.061824576575868886,A
12.62909304271605,-3.7955876430027717,0.006320997827959924,A
13.313740904551333,-4.089566083473011,0.2711533415908648,A
11.20058773414005,-5.387146621310314,1.2065038652785471,A
10.217791364389859,-4.251209143118861,0.6250971781533883,A
12.564254943692855,-3.0800694885206172,-0.7510985852980147,A
8.307102987524747,-3.2863614270092127,-0.8914579937017495,A
7.978750777131336,-2.3604270049376646,-0.9412516673549144,A
7.291836191712235,-1.5476491679634177,-0.8766204301648396,A
8.570579695202479,-1.076658542368825,-1.2102051237460316,A
10.393889470338848,-1.3230210070706805,-2.0455090182307516,A
12.016151578819558,-2.2192751545153513,-1.9435417649144326,A
11.193813163132408,-2.707585691089782,-1.174333193516577,A
8.916604432770184,-3.2588867877200123,0.024403655974090735,A
10.39387091775782,-2.118911864820494,0.21783810310246213,A
7.455713200080582,-1.828607356379198,0.5688545969956126,A
5.56386974863112,-3.101804761372369,0.952889110289128,A
7.400408050637628,-2.5580748619790405,1.163090271615115,A
8.418766742057912,-3.2674790021819122,1.4940084222003003,A
12.901265076825293,-2.7450857233598582,1.271659411968971,A
13.128115516415319,-3.421737123637995,0.8486193630741656,A
12.523414307363595,-3.8179971951046126,0.38381133013555574,A
10.042061787259003,-5.2992942393437,0.8049740714573069,A
12.99252940879835,-2.4873073942944592,-0.5118375011470259,A
10.26031763403572,-2.912184967370911,-1.1612259747417935,A
7.000057626443822,-3.5581315708048424,-0.867680448417473,A
6.960239540370506,-1.9368190398057548,-0.6604441587870241,A
7.0522500329072075,-1.1405986893090534,-0.2686030897723028,A
8.62897637162184,-1.286959030320711,-0.5571201184077144,A
11.224040839573366,-1.6319489588361704,-0.7162370271491437,A
12.120810192788952,-2.665623998571156,0.18396076666929606,A
10.318355346793659,-3.116963297916791,0.5498711513224964,A
10.207670422342614,-3.3431998424619302,0.38274464727672264,A
9.531742113361924,-2.3692524540181155,-0.07952307884281117,A
4.950417481156545,-2.829838277962578,0.785074115396438,A
6.200104867754189,-2.6938349736420344,1.2696457394391445,A
7.025374018127438,-2.8620878444239155,1.7092547559003164,A
11.535985225981287,-2.8921615127531854,1.4642590427159576,A
13.526936246216271,-3.4311110203091015,1.4986778687438065,A
14.510967409057168,-4.6986730169134185,2.15207444649654,A
9.270622704995382,-4.4743180993863465,2.2299618856878807,A
10.796704560962565,-3.7923903987876924,0.9992274052274634,A
12.566386371180949,-3.026584618960001,-0.8218839135384537,A
7.450162783869973,-3.3748417172760967,-1.0443522574436712,A
7.665066316446963,-3.2514352395995343,-0.8781459829284883,A
7.808076451180822,-1.4513386394931354,-0.915200171492324,A
9.16740793001442,-1.4435854540593613,-0.7424376760574043,A
9.980355741052197,-0.9294755489459916,-1.1725712052436115,A
12.160349502856345,-1.3585292128369504,-1.3534118042403265,A
9.389213125628862,-3.073387604415455,-0.5974878432966475,A
9.292177313090816,-3.4736947194034147,0.4230664812309888,A
11.624111944174462,-1.3276508465514767,0.358238627601793,A
6.8163652031986395,-2.7116392191842853,1.3288865830155163,A
6.066710553350581,-3.3418422032413853,1.0903483384958015,A
6.708322377813321,-2.7551847950858863,1.4931041650191381,A
10.285513701735844,-3.1972099158021257,1.1370588234817707,A
13.611375961751682,-3.8654423484936964,1.0789121911168644,A
13.645323046633369,-4.327220355306903,0.6494079871327278,A
12.085568995121399,-5.058095476389414,1.000873472429904,A
10.450804875121309,-4.684802621249602,0.34722480720005844,A
13.766310479188336,-2.58025899459027,-1.3486038347771596,A
10.76343282104848,-3.1199375501929927,-1.9787709208753008,A
8.684286257485947,-2.5049028639651785,-1.8353800574114074,A
7.564117759528024,-1.182665040850818,-1.8387089879006024,A
6.076999643765934,-0.7026774311798457,-1.0883490110790772,A
8.390677424210262,-0.44990664644631795,-1.3341892693041404,A
10.309959328099243,-0.7990511393349272,-1.1838125201076082,A
12.774068587991835,-1.8934517106545234,-1.1260462237396338,A
10.61944847177349,-3.9425089721213844,0.3121066714064939,A
11.48706296631311,-3.9746229270855373,1.0860041879584323,A
10.98587445535258,-1.9877485424052477,0.4848585795952338,A
6.066883442006237,-3.9443443141094243,0.82786575391131,A
7.292514632536862,-3.164674350164533,0.5156512347631746,A
6.628750519831813,-2.833582377761281,0.9669140231556184,A
9.9825909434779,-3.207018287382549,0.5099847133594211,A
13.32269550925001,-3.1721610007998913,0.28509812463839623,A
13.795547797111663,-3.129530225476699,-0.10677839203178767,A
10.870679092779104,-4.444509026873804,0.8296715304282329,A
10.259713211204325,-3.022223342182177,0.02883117022778621,A
11.468692351001502,-2.643507272108891,-0.9568478919780559,A
8.287818703300784,-2.6228765394966005,-1.3731210882128841,A
6.885405566743996,-2.378072686866129,-0.8661713885654786,A
7.312078686471483,-1.4465142149025902,-0.8251479313545902,A
8.075466511184041,-1.1941130423439408,-0.8849282103911441,A
10.340695022852346,-1.4385617993123316,-1.6912929394693543,A
12.309628830710835,-2.1036845895433594,-1.718829507861121,A
12.135978941157028,-3.221352580343414,-1.3579231919519068,A
8.230543619356498,-4.452264137997014,0.7197270409265668,A
11.43691694305898,-2.1058607532360925,0.5477072964634933,A
7.205006295715334,-1.8133775482175065,0.7464065777167672,A
5.8416843575021025,-2.96137984199156,0.6965875554191852,A
6.43940428829616,-1.9329959409815796,0.46794866907002153,A
7.551418125957026,-2.4338030989300035,0.5213217149332325,A
10.552723330490352,-2.932506510547446,0.3203253085428984,A
13.06374395279698,-3.404072483401722,0.006945741247940645,A
14.033989425962723,-3.9216798862410185,0.05775190343285371,A
10.464454191726778,-4.76514114733668,0.46750241103290324,A
10.994645600434236,-3.138942590208607,-0.5225958288792721,A
10.970561588956475,-2.791273091878412,-0.8898093876847103,A
6.881311386831748,-3.1902667653020647,-0.7134160198095658,A
7.770807982297131,-1.713594797275823,-0.7553271088732855,A
6.780299630272548,-1.6330017448060254,-0.7308107805770372,A
8.835753809214593,-1.2068405922566148,-1.2468252367467698,A
10.626711247295722,-1.512148234536473,-1.625642687896696,A
13.60596320321813,-1.986514938861626,-1.6870716666367886,A
10.365146208132604,-3.622902897994128,-0.20012124066702996,A
9.27118849381621,-2.94834635884832,0.8555985885114319,A
10.300587866662514,-1.7921419193872006,-0.34376928836982856,A
5.338907570418761,-3.5580689051536707,0.0924323328618651,A
6.419040538976903,-2.8395630151517364,-0.09008826085347608,A
7.075647005697616,-1.9843751050372676,0.6588270435605897,A
8.611889070893945,-2.7769935963641803,0.7305891806285815,A
12.483190001880322,-2.7805156296570566,0.7226276498734736,A
14.376080513002199,-3.0485026106723803,0.1995745097998189,A
12.427270649596737,-4.808907035349872,0.7652308944011343,A
8.895617491970075,-4.7399230229028015,0.222040357162435,A
12.161943104655741,-3.406530132973212,-0.4450939921798141,A
9.159409629065298,-3.318401088925085,-1.166932696426646,A
7.199739251708303,-3.1360103475845587,-1.0115327026173409,A
7.399868318623796,-2.4042534986623774,-1.1598858223206594,A
8.616462359771845,-1.8941289344732106,-0.96667847345124,A
10.547058775911989,-1.3219690089313318,-1.7049034247497068,A
11.70574313023067,-1.9088470779192321,-1.631538893219813,A
10.862413752487827,-2.331744435940955,-1.312810844850259,A
8.903936988436556,-2.9626789386725942,0.11170545850300671,A
10.240793647331603,-2.4389021794559875,0.5937057242187224,A
8.711014146723675,-1.3510185216363693,0.6011371492872964,A
4.672596152276814,-2.5981574419722353,0.8420969218659028,A
6.64768576957687,-2.3407625033286776,0.6798423816094157,A
6.487873149781822,-2.3615926846300517,0.5341122733207868,A
10.939318465043565,-2.8538237765388397,0.39115431576365073,A
13.163018918916645,-2.966661357455404,-0.345458895392312,A
14.565534112918723,-4.458176571699542,0.016181586639141918,A
10.160595036048408,-5.6924709125956765,0.6053026455836558,A
10.531053980739683,-3.731338435946349,0.1316203877665845,A
11.800372662689787,-3.4954473153994847,-0.6796483497564628,A
7.750838297945424,-3.3237647253971345,-1.0762934999205018,A
8.593127281784499,-2.6309444095805428,-0.8797500992587093,A
7.578734376378603,-1.63415562178528,-0.9236954345155451,A
9.65794489235547,-1.235751398860264,-1.0670857345873608,A
10.902224573287839,-0.9718231765408151,-1.5793694731223322,A
12.49248965360162,-1.8403668458295699,-1.6175761535517137,A
8.92364761459887,-2.9915091883621034,-0.40193635905155756,A
9.358892091634216,-3.4266125742873754,0.5756552010322319,A
11.451299123252298,-1.5053057372604677,0.05225992298326181,A
5.407337797631144,-2.832874308702398,0.3833327433669353,A
6.25611455278173,-2.905299578235847,0.4294502106591089,A
6.526706895634587,-2.0070001424687134,0.6271692626632738,A
9.093745967070122,-3.0538388223980593,0.05773711856199218,A
13.445767124078056,-2.922424358739772,-0.5282302758017057,A
13.737309230837988,-4.827700947832647,-1.2887587734786567,A
7.060189414695697,-3.839235750427325,0.4615628782071693,A
10.678365299617532,-4.762227056153944,0.8664812903738527,A
13.9723222567756,-3.159259967801054,-0.7812602995889678,A
10.764219280634514,-4.035089547672339,-0.6247421961945876,A
7.638635089141325,-2.550960228529665,-0.49537912819814833,A
8.228151430957242,-1.7668968641469236,-0.10963337041683026,A
7.369246419548358,-1.984035325413244,-0.8105881304103323,A
10.587223502107012,-1.2789071414881734,-1.9221346114599973,A
10.573556431027656,-1.6985371213022304,-2.023972284384455,A
11.634038445252338,-1.4198706233198857,-1.3114478152204752,A
8.892149625091056,-2.930072991229769,-0.4945800852584898,A
10.152955131830286,-2.525042046316214,-0.08331906331579221,A
10.0044415483912,-2.337687518517766,-0.19266656047721611,A
5.339192563943971,-2.8189413771167726,0.3374233253321506,A
6.506755093795288,-2.741044139164942,0.584137175625181,A
7.657860939129621,-2.782200049625425,1.2976888239041517,A
10.537859101659311,-3.1652859357046887,1.1772501944254388,A
13.249149681058784,-3.1851124305610927,1.0621924598781876,A
12.911069538419339,-4.084195789380656,0.28847982822438767,A
10.90458016081747,-5.05134897805215,0.9596510753268374,A
9.334009546181127,-4.240954691419888,-0.5496141549035382,A
12.874488065138259,-2.8052684287160314,-1.5068434195312297,A
8.908202292267132,-3.272101055904896,-1.4762021253916042,A
7.288133475088244,-2.630401104304681,-1.2179825055891187,A
7.4023589747489655,-1.5647086877720349,-1.1927749312278093,A
8.34287580819247,-0.9875538137079177,-1.273737746285061,A
9.184649768853765,-0.7519845921136488,-1.5550983917413934,A
10.878267794270114,-1.4729133301756787,-1.3336050241610824,A
11.182975874728575,-2.762265917221446,-1.2051772961864673,A
10.197911544636723,-4.3447163557904265,0.6090189946222215,A
12.293815447531463,-2.93108635640261,0.35280262813765506,A
9.015202040378476,-2.921272965167159,0.22150555024985494,A
6.322941550457845,-3.5500131115682945,0.6255432303593954,A
7.093578501412118,-1.8482120908324193,0.7258709614255446,A
7.017410209714702,-2.5672680022433076,0.925793405681548,A
9.095629423613266,-2.2297817967417175,1.0351474638391365,A
12.346987129358762,-2.228418082685425,0.04030912548644602,A
14.727774621349065,-3.7020184011211574,-0.41352360972498614,A
10.882846546628752,-5.433321484850543,0.16863617980044904,A
12.000038604353346,-2.516700986717796,-0.7547641596116016,A
9.931655304902032,-3.984703278641464,-0.893436470637625,A
6.470549130231129,-2.0809492048657146,-0.8513373204158762,A
6.1142951894328315,-2.5372017400208344,-0.39770104508833565,A
7.451032928004735,-1.786192376472219,-0.757469401483103,A
8.907467817286596,-1.451351286714667,-0.3747963713919616,A
11.809266831849927,-1.6164956918604434,-0.806231083767847,A
14.380905983189582,-2.1802367059097025,-1.0727259313017194,A
9.925151824053469,-3.9528519259143065,-0.04841006953748482,A
9.638944843289543,-4.298514783986646,0.8601602586156901,A
10.580608033762442,-1.4151736305713407,-0.427275245820001,A
5.130579848732339,-3.2819503409379567,0.3301742322723401,A
6.218292310139284,-2.365216226200287,-0.32583742626887185,A
5.967150667295653,-2.0825200836099818,0.1001646029513989,A
8.778593175353235,-2.5726885940235538,0.24193432293814035,A
10.654189733917367,-2.69964999033946,1.003892415140001,A
13.204507005701027,-2.214919066062839,0.08989677791378611,A
11.601977819196762,-4.753292650344386,0.6387707968522638,A
10.579132172807013,-4.219322976491249,1.1468020161573411,A
12.345646589820387,-2.959722128011416,0.5547728177428431,A
9.742870885497378,-3.54354781144213,0.3185019117144206,A
5.9362913231620364,-3.2725105325830746,0.3396116490360182,A
8.233287906788632,-2.4945548583572967,-0.04213255086232948,A
7.638144324629114,-1.3684100987522594,-0.5607122553106674,A
10.169289488109683,-1.6968825010065942,-1.9218631540261306,A
11.428326080084076,-1.863801931236734,-1.5325155236563353,A
11.466512367746216,-1.9151273127587631,0.08990582110763895,A
9.2637598449288,-1.5409969804222041,0.8769113200966215,A
10.748450737295373,-1.1409530300111683,1.4598895264657579,A
8.13202210887441,-0.6452164388878202,1.4509306106231916,A
5.955250151989933,-1.7772509477987026,0.5252342142559732,A
7.085469349386501,-2.6733329924918205,0.44579540689626085,A
8.526829865049814,-3.2300973345277577,1.2174295503594452,A
11.167380479558048,-3.4349508802354207,1.0598689761455113,A
13.091533263910291,-3.5590404857057627,0.3647775087066318,A
11.415514850601635,-3.8217835660470074,0.3954547780819575,A
10.246956486319007,-5.127069705567697,2.3275174799546314,A
10.345221781142994,-3.9169641178929253,1.2092582958901272,A
11.117505480074016,-3.8946535569670635,0.2580864128170892,A
7.431472148108498,-3.1725204004047676,-0.16273121076807137,A
7.076488790237,-2.3103324566315235,-0.820105731817123,A
7.684067114309623,-1.6601684004499973,-0.16647228215634133,A
9.209367405687837,-1.6983126505927943,0.05280320676846319,A
9.913863779999891,-1.8857102633581375,-0.23017993600638892,A
12.761631456836222,-2.2249182338763505,-0.42919002698696335,A
10.194506104748724,-3.7572190755306756,0.3899102953053653,A
8.617504364971818,-4.536351872132416,1.7410852368259966,A
10.551652516022038,-2.54338860135822,0.6109229813895145,A
5.986592580010333,-3.677780590795806,0.7038555088907296,A
6.464942759954567,-2.9284266541360595,0.8047460261742919,A
6.634080995359978,-2.944760271144439,1.5177813214309177,A
9.210276382776978,-3.212353140406825,1.5886082140156532,A
12.206721393882106,-3.6383226198857272,1.2889614512319307,A
12.474054129863578,-3.928109087416251,0.702407322927643,A
10.95819109027779,-5.0497486547362795,1.593431978065675,A
9.786517468674054,-4.521488809773561,1.0632723528263082,A
10.888510168733545,-3.9004907135923044,-0.14020890210187362,A
9.122991518616258,-3.6884362419837076,-0.4972258675614249,A
6.625359733613612,-3.3027530674802192,-0.17028663462640534,A
8.06340246595431,-2.384144485373256,-0.3621162477570384,A
7.767904882140412,-1.9958080778828955,0.013435336971308942,A
9.528962139412311,-1.8555274758786646,0.01961291546534156,A
11.02028338920671,-1.8191814265435793,0.21162223994363308,A
13.471515879171623,-2.841218789002481,-0.41041923277512105,A
7.741120746224152,-4.72582387875502,1.2275856574082908,A
9.456244330132245,-3.8254231039971103,1.2911479649766258,A
9.76415018426342,-2.631616942867488,0.7858162645738049,A
6.077316413489747,-3.4357878914781392,0.928922316456819,A
7.138545569341539,-2.423117310632988,0.6978657100262343,A
6.852629221245647,-2.7395332877955196,0.8362651703364515,A
9.083592707877044,-2.327453586432169,0.5222876227368657,A
10.950340425323377,-2.925752893002635,0.407639695849082,A
12.955007692045768,-3.681432071355823,0.7481484745231901,A
11.160639053086447,-5.482295360436206,1.2621097527885279,A
9.805963346816384,-5.171235778552757,0.6499423457018474,A
11.758626053093048,-4.274392039836706,0.1467190359739109,A
8.32538742665608,-3.8692186512739903,-0.20675114848647985,A
7.54163838118681,-3.4212144927051558,-0.23893516458805703,A
8.026568889328283,-2.311222624710418,-0.17854154065832933,A
8.218537940406916,-2.020639355014915,-0.2745092454597644,A
10.175640495504958,-1.6942798874542244,-0.7891847295069632,A
12.574438760989027,-2.2745772689750092,-1.4774901532767226,A
11.008661728500133,-3.6554648456392154,0.33364641618684504,A
7.628197592705546,-3.6118307538873466,1.5913300971220752,A
11.60218592943338,-2.342873638903597,0.44229373509612036,A
7.686861147485073,-2.8166176009054213,0.5274036297637823,A
5.654487727951469,-2.88038455445078,0.481249567009381,A
6.49327606126817,-1.8596519426883449,0.9310575472879847,A
6.655861685782749,-2.4587978193662603,0.9400897945789602,A
10.085450842306352,-2.9386821231355125,0.9294459303122635,A
14.269148887284253,-3.39169278662674,0.7159622647544615,A
12.547440674147557,-3.2865713823684457,0.9304513532304153,A
10.072915800089516,-4.696439825520324,2.757225392022621,A
7.602697311805268,-4.631210231854551,1.5990342272770226,A
12.101210091548019,-3.9850737930135987,-0.9757611632589651,A
8.09887552844168,-4.842608182688269,-0.9252113814337232,A
9.382544292105967,-3.4715348795047034,-1.5002760635539523,A
7.398956099138984,-2.429502334360913,-0.6908897593417906,A
10.07176509654689,-2.3182322722366404,-0.36448522432456143,A
10.66980581864174,-1.754332235569441,-0.2348285083351257,A
11.60235489201551,-1.002859600116262,0.24767162074616217,A
9.043106140976521,-2.388170267202682,0.9885372998980714,A
8.59906955923622,-2.4798446989422027,-0.1518320017583812,A
9.883947561606455,-2.925696122246286,-0.27431813685856415,A
6.617529102746951,-3.3287414361400636,-0.06741340188725514,A
6.336888523926129,-2.856541751037853,0.6811853101089894,A
7.370441511016695,-2.7031088642854737,1.0731444784722757,A
8.216259236473313,-3.4553199353269917,1.1004964437807305,A
13.26083243739706,-3.541987174283656,0.7979214260814795,A
13.705738712150334,-3.5793810915973765,1.0866092628380943,A
12.701409167150292,-3.927959961192578,1.6861020411967145,A
9.721742511271778,-4.3979329565257785,2.024097277529816,A
10.095427057723677,-2.2605457928913166,0.4741918200293092,A
10.562518340956249,-2.4874100063770226,-0.6702749340905073,A
6.556436236448744,-2.7402798342708214,-1.4109092020177387,A
7.30955989106691,-2.8697734510525743,-1.2110979892740332,A
7.152034637164251,-2.005433075648998,-1.3325631361676937,A
10.310846874010506,-2.1048668972980726,-1.1692106872773977,A
11.971894339272042,-1.6679251109652815,-1.1424988695785774,A
13.904760546802574,-2.963976255364774,-0.6041077406756561,A
8.392394224459965,-3.8300757641837375,1.8978739520636736,A
9.280196372150314,-1.9396164847635895,1.2613331303272015,A
9.47098503078371,-1.8521563333588122,1.1129366076155156,A
5.617088072320949,-2.5156490414963733,1.0098675222488505,A
6.4902301647580085,-2.134336718894715,0.6881793579792087,A
6.199840964069197,-2.2743028532003065,1.1516807839266912,A
9.111727394565433,-2.7140478774046652,1.14971690894688,A
12.821708621497626,-2.9897430820319104,1.329411174570541,A
15.37813002346805,-3.685881705622487,0.3116831468251257,A
10.885064243987427,-5.142668966830604,0.9380518464833375,A
8.570848598029638,-4.3406957934055175,0.4874382699537776,A
10.952347879616681,-2.9568337367283206,-0.825064571910253,A
8.409597602727523,-3.2853634260763953,-1.0974238297681527,A
6.965533115780376,-3.3106040745893828,-0.8953361563291596,A
8.099023353561028,-2.5464796531952834,-0.7374657218340966,A
8.988793632553113,-1.8456304859482102,-0.6145807210559743,A
10.766224275316484,-1.4062821768659934,-0.8897314490345294,A
11.506193039107076,-2.007665800659768,-0.5593874878625446,A
11.12417904955525,-2.7141338224802025,-0.08422062581734649,A
8.214004579511654,-3.6198414652436486,0.8757939950489646,A
9.990673386115354,-2.8094841598027194,0.3306453890953729,A
7.875684279877519,-1.9419032267123186,-0.12897215852799296,A
5.975042643356386,-2.8597099698241073,0.09369476582650205,A
6.908062327090597,-2.0235743585450976,0.35898141784544874,A
6.755347653118608,-2.7892425722179732,0.9412923625564086,A
9.716450143259518,-2.728685067985664,1.0297406681967358,A
14.099998448667716,-2.8130560905065387,0.6372370187488001,A
15.855354685999325,-4.421284992278095,0.10075297708655584,A
9.86314541850208,-6.435096198710567,1.9567975162770135,A
9.418149940289677,-3.4833623165476313,0.051317828683146285,A
11.764122040998659,-3.4307457433413804,-0.3257041960321932,A
8.056275199507345,-2.885752866852701,-0.694398896500845,A
7.710425350392299,-2.835241065563968,-0.5023266511605178,A
7.612398083117934,-1.7822247277766556,-0.134296887215439,A
8.87817723736482,-1.5184854426542724,-0.2549099452093924,A
10.778849282444428,-0.9514510392439579,-1.0595299689300006,A
12.650329885336326,-2.424276148661215,0.09581571563165463,A
10.959575379518917,-1.6660763193017174,0.40626799726097984,A
7.920957324771973,-2.4825161466860566,0.4258317506895572,A
9.548946929211954,-1.8784219254711405,-0.6895921216553363,A
7.084055000418231,-2.8857110572973332,-0.07389341594484296,A
6.813818421428672,-3.312623988759506,-0.09457796789846469,A
7.613361026480344,-3.437921226366072,0.7240677555902514,A
9.071979185898186,-3.675023002991337,0.6222721967016959,A
11.75240702621908,-4.546135442583778,0.8085162383827185,A
14.30637080424186,-4.490753070409357,0.12175270196442672,A
11.850227915456307,-5.444291848635995,1.077275873704456,A
10.159516681616545,-4.1222325128445325,1.335704574627246,A
12.637852399708969,-2.934276550277757,-0.1373709690218249,A
11.419973608968593,-3.700142791237057,-0.2731343883736078,A
9.1434507806495,-2.5388357647626876,-1.0323868998706374,A
8.097902284120476,-1.5549008647790443,-0.8155988683609297,A
6.7564349575658955,-0.9093247390996976,-0.974561741799776,A
7.494564285071722,-0.8438536973096411,-0.954225092321488,A
9.590037653556802,-0.6287075616785701,-1.5345038047044741,A
10.76001815631368,-2.117509148628459,-0.2935651758742241,A
11.578079791178615,-2.448258267357293,-0.2355620573965389,A
11.512895561272384,-3.304476244934106,-0.22168292971034406,A
11.081125769489784,-3.606713218678954,0.14870590360778488,A
7.028597030449542,-3.5619176195536797,0.878937572757555,A
6.73512117371459,-3.119394040182666,0.6911935516890532,A
7.369499695586282,-3.497254000547197,1.0466065841618608,A
9.629490752649142,-3.505119377069997,1.3351636300535668,A
11.586358058546155,-3.250576355781209,0.7143862961314839,A
14.142250490399368,-3.779957807963776,-0.32073714198457076,A
10.957436057326476,-5.12484767081126,-0.19198939744951238,A
9.700052535768936,-4.7009976552194965,0.07405984936715158,A
12.902254950439143,-2.9816102196011327,-0.9730826946835088,A
10.121424693981274,-2.8120885262828956,-0.7438440772637278,A
8.437008899585688,-2.513221102495408,-1.2286624561143615,A
8.405483944711845,-2.5369100532222753,-1.14480419593779,A
8.134255303330548,-1.5400422266730753,-1.2780551922519485,A
9.226304602664007,-1.2604778688705962,-0.6771320084150705,A
10.635593810616868,-0.25970471305416043,-1.0894209294603923,A
10.819352901706301,-1.9353562575747874,0.2898074264943597,A
9.986628773165782,-1.801624448105375,-1.00825093510422,A
9.755840250564482,-4.023417618687116,-0.4179100084835616,A
10.345705671027755,-4.1319146981018395,0.12428823850356817,A
7.03318065025772,-4.024452619954824,0.7423167336918887,A
7.573332447298802,-3.4355241012757864,0.8516153042785441,A
7.947971939091135,-3.578071441429109,0.32243546977172627,A
9.755274648274417,-3.9714987486902853,0.6596782914829813,A
12.238058544664488,-3.4097962331964604,0.2224149944055047,A
12.840805838508382,-3.7939789103183936,-0.15183953437989042,A
10.171943766584098,-4.811366853703952,0.20479084752202584,A
11.038423336911428,-4.467303099311192,0.21756854642516021,A
14.489734445079842,-2.964965793316303,-1.4840670051255067,A
9.620291239664768,-3.5139835048171313,-1.1401587234365806,A
8.016289929476535,-2.372577476189128,-0.7658584074986212,A
7.899041812865483,-0.6539122892333877,-0.6035719115772279,A
6.329761380242574,-0.791941533090196,-0.6991915334133051,A
7.937454624179307,-0.9213845113569954,-1.5506975886106893,A
9.929258487313593,-1.1862250830491559,-1.4019228495927414,A
12.352425801357448,-2.7608812792274082,-0.35557598860739753,A
11.389259451809433,-4.160943720116964,0.6243272060777796,A
11.217591090022813,-4.283517826778538,0.8793118430755867,A
10.345727990978727,-3.7744010916734876,0.8344157255360335,A
5.926829773089068,-3.552505457842993,0.9954207427546918,A
7.284124471805663,-2.8522321552266314,0.5769944137561467,A
7.549601088729046,-3.1509749202098374,0.7227546949936808,A
10.482784473661551,-3.049985680015795,0.4384638040304694,A
11.375549552035974,-3.225992513481053,0.5224004707988281,A
14.255111753394681,-3.050428057492665,-0.14132234993659265,A
10.066352245907003,-4.7873167207965555,0.5714544186787747,A
9.274511428449527,-3.48147006126631,-0.08683426177941109,A
11.421373061277873,-3.4643139996373864,-1.4683601621687485,A
9.194941621439614,-3.4314107159789993,-1.7319504294098484,A
7.78032068044443,-2.975063312014435,-1.3517044934250158,A
7.750880315840367,-1.6880656666960008,-1.1461716853267916,A
7.714559486175243,-1.7264446264255684,-0.8536877435226765,A
10.158915131953567,-1.1263723051332635,-0.9410850378746035,A
11.65851805207688,-1.3087489431193935,-0.808994942040397,A
11.246874040839385,-2.755932089668511,0.14083759208582464,A
9.044084156043196,-3.0540381405008503,0.3811115184680079,A
8.960189211910322,-3.98346658544837,0.7021638589809273,A
9.850505232755424,-2.928543127901532,0.6248580038786694,A
6.226040765554401,-3.171172381960802,0.6231796572879369,A
7.4158988692029615,-2.7288133383313222,0.4812839749467866,A
6.90964801571357,-3.3183850757746884,0.8772889273106238,A
10.116746910993955,-2.875257901985621,0.8214501615978532,A
11.663620422169647,-3.230280383746005,0.39858103760033087,A
13.500619039372424,-3.77350211993112,0.2417134721323546,A
11.910446858282242,-5.475010586498028,1.2180400627966492,A
9.945042113256132,-3.6867016750199455,0.09942434622547396,A
11.991559826179149,-3.003418300952107,-0.639212540826965,A
9.307230256991843,-3.0118945288067747,-0.7461248615530641,A
7.353522272737482,-2.068785875771637,-0.8038712416980597,A
6.895938500884291,-1.9011141701383771,-0.40195340203284435,A
7.208589136928285,-1.0224450186900036,-0.6527361083774058,A
8.442566712555049,-1.1783298317815556,-0.7037263133091642,A
10.997527861552728,-1.3619585508869114,-0.7385401645853986,A
14.077537508121171,-2.6937899004394406,-0.6092679319579675,A
10.166923288269436,-4.465590312137829,1.128377911187637,A
11.053512133993515,-3.1418323998971105,0.8153248994822901,A
8.763139234014648,-2.85876623465049,0.1376540444524486,A
5.8263334129344955,-3.5953984359541793,0.43303464326761787,A
6.697078770671455,-2.509889030346213,0.7168519844085258,A
7.0909575279854575,-3.140706367366664,1.0281651589859935,A
10.226548150003715,-2.9295434064399024,0.5566322314898334,A
12.579478709525773,-3.2014785262409804,0.22065212805970935,A
12.720140693356775,-3.410080339640973,-0.007833751662901097,A
10.305427259259629,-4.829223974471743,1.226646360165478,A
9.974960089846885,-3.6748096097183516,0.29487327915354256,A
11.812611639132276,-3.1444582840102435,-0.6402917867348945,A
7.48482112005518,-3.2530005357722525,-0.728399017610284,A
7.261838940989408,-3.0921369267066585,-0.3296058990338658,A
8.152793682351652,-1.5521237776396968,-0.47150333662414046,A
8.555419245321819,-2.0231520581214992,-0.5358356653438832,A
11.095751124050642,-1.4423361666326502,-1.1533221144510275,A
11.548579303708879,-2.101766421133388,-0.879826014465126,A
10.268692010198286,-2.536466996514534,-0.5893744749798432,A
8.173444154639308,-3.6223120661496027,0.2861007485319496,A
10.78824850067939,-2.3645359284296052,0.05911703412351229,A
7.316013793977545,-2.305886053106804,0.14178406701015728,A
5.799047811734326,-2.90891798204111,0.4209407753776942,A
6.981952014687185,-2.325051094541757,0.37485251930704017,A
8.100159651366889,-2.833993459865955,0.6512697405699073,A
11.539202712846151,-3.7237791160408613,0.587474435708985,A
12.928454563653025,-4.625836286870001,0.6446491948039408,A
12.17322095536376,-4.317790716062133,0.681300163698282,A
9.42820835157475,-5.55241767378919,0.5082372460084951,A
10.884311080745842,-4.529631979057824,-0.3890803921515552,A
10.854995577566736,-3.84999633092962,-1.0053777542506457,A
8.240306364769284,-3.440759011677121,-0.8168316744693438,A
7.816997650586751,-2.8099403676405346,-0.9331237996630526,A
7.5710823987614715,-1.7690012092985916,-0.8821481988532887,A
8.17503790330486,-1.4905460889206712,-0.9536873119159693,A
10.544924189274946,-0.9392779452993403,-1.2092792384413387,A
11.755061261417469,-1.8653689912564893,-0.9180132257654372,A
11.152369612989823,-2.9800427596158605,0.10402243366893017,A
9.279099807593582,-3.362757551892808,0.4920022904981943,A
10.713095729608074,-3.2166808611777906,0.2391198778015325,A
7.6935149317830165,-3.393373406248015,0.4236434760693473,A
5.4207667518150675,-2.7454401162716198,0.47566276047959444,A
6.999369158374864,-2.5262957057717172,0.4678596897372354,A
7.875044010567494,-3.361958401568757,0.6939357485268102,A
11.636080412673088,-3.1916035301876873,0.5855060114291462,A
12.56086574264673,-3.508468882204615,0.19032630045057902,A
12.043007473688338,-4.143774390444763,0.38793342726956054,A
10.18761104080514,-5.283597074630069,0.8962095513808,A
12.456920398769839,-3.4647698654920633,-0.034435256579578945,A
11.495905158677296,-3.585313509832946,-0.5469287761321279,A
7.632276738459752,-3.4313696365206856,-0.5176456536703168,A
8.322032773424489,-2.262241268389029,-0.5976054721372955,A
7.36176311022975,-1.2965544742337398,-0.998355518648677,A
7.531238991138812,-1.2792157358085878,-0.9320865493959358,A
9.940862048663366,-0.8739493903799089,-1.4197578134159408,A
10.451707457608,-2.3339847418239126,-0.7747963942109667,A
10.961147453856961,-3.0775208518753683,0.05702337522386172,A
11.12550011789937,-3.7193013860499424,0.34656112675503276,A
10.604260698856791,-4.1692072186313265,1.1381455258162636,A
7.807718968502083,-3.1094061100135804,1.2488600304455335,A
5.850653896949445,-3.021892802915691,0.9143151217360845,A
7.262146074394279,-2.986188243047586,0.7209996361990764,A
7.87312477837012,-3.1787468481098067,0.7346743158636774,A
11.660378847457118,-3.252092608874046,0.6836097250047815,A
12.508419667136414,-3.457901071569449,-0.2232154671592638,A
11.871646742399259,-4.657536692774783,0.44660492265505775,A
11.203371058623643,-4.888637396241995,0.747275598478734,A
11.487756513441596,-3.396485687141553,-0.3706823897510137,A
10.69630277602279,-3.265879035626505,-0.7141908170145918,A
7.240464930140572,-2.6420082064264037,-0.9626818518881632,A
7.778587279187393,-2.1242516345961846,-0.8834319700353006,A
6.747249525979485,-1.3352894652562886,-1.006326282050952,A
7.630193057553286,-1.5567089931252551,-1.0495728215040097,A
9.91039804465725,-1.0558856732977067,-1.3649117246904237,A
12.815954609216455,-2.272881043293786,-1.0636880115420362,A
11.217173914444173,-3.3842416549294203,0.1138313330847935,A
9.453474584662983,-3.869810748063038,1.000280371384075,A
11.138489741276567,-2.70750405898775,0.6806397154712576,A
6.943139009093558,-3.148173124444109,1.0047338993554127,A
6.33312789455108,-2.6824290923576184,0.45169448166823484,A
6.799324220824239,-2.418551803237387,0.5894659436773684,A
8.332788443565862,-2.809606947503882,0.40746677453096497,A
10.752141523771284,-3.0062983810059603,0.051299912987175116,A
12.658584167708657,-3.5159491071831974,-0.29986087998686306,A
12.315979829381751,-4.750098699272703,0.8373440016637996,A
10.84536988864251,-5.8296315313620966,1.2373495342495016,A
12.677182279124903,-3.895795466386811,0.29599195591359745,A
11.959446246464102,-3.1422036080384874,-0.2560628873740627,A
8.345173276995652,-3.0142828536454798,-0.6219682140716994,A
8.593359484092499,-2.1982035531067305,-0.7055629871051551,A
7.017317216065093,-0.9675002650603947,-0.9371317578561372,A
7.692369107417273,-1.1871716750781387,-1.0289669176698168,A
9.15374320025016,-0.607754840397704,-1.4195796626680108,A
10.956827420781444,-1.8714744573629032,-1.1015656129698341,A
11.55304892711519,-3.054667358953377,0.16200483367765034,A
10.153849895557629,-3.770141555392982,0.9821307775304537,A
11.854444395085364,-3.417104223318542,0.05485158122863826,A
7.551042709886224,-3.677394748021435,0.4411519556106359,A
6.902822664682702,-2.9523496104712645,0.4776126165126391,A
6.9352338668696785,-2.8419780138251354,0.4672653729597371,A
8.521160809452132,-3.341105305889076,0.508348963741833,A
11.125124171916848,-3.399138989483673,0.3706126386227061,A
12.82968826068208,-3.564710343157417,0.02829634454590279,A
11.70763340104884,-4.696392535273425,0.36444211622142786,A
10.763467181717346,-5.444593971568012,0.6086078032257541,A
13.724884277352785,-3.19216438036547,-1.098841230027438,A
10.508247456674257,-3.2604863306852314,-1.419979994520731,A
7.836288471349504,-3.0814827842277,-1.1631579638063623,A
8.288683313674927,-1.5305978046311532,-1.292056150313808,A
6.566000162376459,-1.1956998988995253,-1.1271877752054338,A
8.05214207032149,-0.9698441211510226,-1.608381900489306,A
9.7361787512776,-1.329849903370126,-1.5533978413321956,A
12.453528585076924,-1.991745928785062,-1.5006684741360923,A
10.07333865578286,-4.084210036493198,0.3181938084484954,A
11.015750966733167,-4.579416252152197,1.3367524084865525,A
10.856685236675272,-2.2927336642645937,1.2067408276071536,A
6.2574780130651595,-3.7827246908032537,1.4632003750411353,A
6.662521461149953,-2.8103382212988652,1.1411232007277157,A
7.443946682531292,-2.7639409604511873,1.346282630310613,A
9.144990044372765,-3.482563125362719,1.2069090355722478,A
11.975159434598423,-3.583457947519029,1.2603349246615347,A
11.306743327176498,-3.5930656056374697,0.6994496590460318,A
11.283879227949013,-4.3794817385837295,0.7380125429038555,A
11.071253760100921,-4.723381364487142,0.1705082433928681,A
11.003980477637255,-3.0020149092936337,-1.2624238106759986,A
10.082128323940877,-3.133829607542451,-1.6972422187725742,A
7.390356275050937,-3.1561243539874275,-1.3623639788282123,A
8.57273635402137,-2.1921875235682005,-1.5004430578622574,A
7.497681169425663,-1.5956784876482524,-1.3787136228539032,A
8.817690498185113,-1.5775220401704444,-1.4505979797983946,A
9.57304939910763,-1.5681042312639109,-0.7164107289690831,A
9.933246912715935,-2.8763440809535354,1.3309028791407984,A
11.711983531286274,-1.3542157171474616,0.8305837598553872,A
9.46074100206467,-3.994946962630565,1.8457933066709893,A
10.354963906910413,-3.7841293909899463,1.8571670971173049,A
6.6949433391017,-2.8823026961037996,1.7382367521860973,A
7.436756454624459,-3.816349839405483,0.7509160517915101,A
7.495314654371155,-3.3083048649245463,1.23210842562251,A
9.600518197470823,-3.5921471125356925,1.1404399590948286,A
11.124498190434418,-3.6745429699459784,0.7022060320142808,A
12.625277233824091,-4.180589539590017,0.5005337735473671,A
11.861637475622333,-4.966324598662655,0.9267979357951056,A
10.913073868161717,-3.6651343871131865,-0.1459139863489383,A
11.5729083570908,-2.9903207643236556,-0.8351971322661427,A
6.923953903330419,-3.6790997210488245,-0.4761410949334075,A
7.162892357720528,-2.2840385694036245,-0.41735955947999304,A
7.180624911132567,-1.8991380049352513,-0.35999692536983613,A
9.115266871129162,-1.6224517533511624,-0.6730945883460426,A
10.962581381156724,-1.3476981101851784,-0.9646210019866187,A
11.734366048369944,-2.334496806354791,-0.11425733332501242,A
6.832414886297224,-3.5347995486097483,1.7287646283118736,A
14.596383925259605,-2.1305789865506397,-0.8270797526773264,A
9.223287342680319,-5.262950651365146,1.338167527752346,A
7.970741070085662,-2.8198567810378634,1.66406762417915,A
6.168976358533997,-0.7686734499802322,0.768445252558529,A
5.580442488492422,-3.448099369263091,0.705297041176499,A
8.71603418658687,-2.792272189647107,0.57429293835648,A
11.663049195529199,-2.564176368306675,0.6058348480191499,A
11.760957666577195,-3.220227148493759,0.31927637704059203,A
12.049390785144604,-3.8814577438553073,0.8329465149872652,A
10.800637005728737,-5.428247846475305,1.3562862423681874,A
11.835424714700086,-3.7361469608913196,-0.19266698338498825,A
10.810231228946268,-3.7476074562744057,-0.3721760368138145,A
7.315318936828541,-3.6099157411254166,-0.30772719216893396,A
7.449135538881228,-2.5339037577146857,-0.20397182667162428,A
7.421360965919287,-1.805076915297706,-0.43063700127928334,A
8.693855837816649,-1.2689197467331212,-1.01276259413969,A
9.820939038962335,-1.4568891159547235,-1.1166746923488742,A
11.615815292747481,-2.351975859764657,-0.7297165395842953,A
11.171762329517996,-3.9024980759344166,0.7532266954968245,A
8.953065250273506,-3.227413112687814,1.712687660936517,A
11.04721657767719,-2.134753246962864,1.0162936024680056,A
6.156995826145605,-3.0080832289065857,1.2135235640515423,A
5.878849822913401,-2.4879815137556083,1.0173590723816668,A
6.3931913627386106,-2.326468101764895,1.2393644156906418,A
8.033696557868007,-2.6886230746087203,0.6687469758631706,A
11.504984506720596,-3.0574312755659987,0.6735764843560259,A
13.40401802799461,-3.4995680578055084,0.4222787989753236,A
11.57561639244802,-4.517238223050276,1.320314124447893,A
9.724239001742143,-4.9049091692068805,1.2479617772074698,A
11.896610964924067,-3.549377317769984,0.08952067661394636,A
11.007335996153865,-3.3279439157934187,-0.6585348355577769,A
6.689162132082225,-3.5050280748449225,-0.643820046547294,A
7.42326045133538,-2.4354184960838756,-0.40137457226788875,A
6.259818496619098,-1.6278931275504431,-0.20265945317641176,A
9.281980047600936,-1.768540876975141,-0.3211571416711905,A
11.2931074865508,-1.67451995111966,-0.6743397909426269,A
13.23712705062788,-2.9692989317437273,-0.15510679864227442,A
9.085788996205878,-3.5060858078588817,1.2937370601150966,A
9.300135719494344,-3.4366785423039676,1.0865590271503744,A
10.518025468399722,-2.557344791784188,0.1035784401444324,A
5.813625920065453,-3.2153471146953527,0.3226590424108863,A
7.0376788053381345,-2.5359495065801934,0.2748847142794628,A
6.482685386953408,-2.5162066949819204,0.8783007464922723,A
8.759353476345993,-2.6605340070879873,0.7319838573192479,A
11.419293883792227,-2.799857571208648,0.3863200099169965,A
13.483807390695686,-3.534969627860139,0.5967210623103142,A
11.609930016521536,-4.822458742308215,1.2175181311564014,A
10.952819446928089,-3.871740873022309,0.09740803421985576,A
11.631982345738658,-2.852166433116204,-0.7928714146299327,A
7.041557131822032,-3.842961951788875,-0.4053762264229164,A
6.924687006693679,-2.826005845067656,-0.2001993223977414,A
6.953432868747452,-1.8588709815994233,-0.27907355211354673,A
9.149957484646768,-2.0291519401065057,-0.26330402274246,A
11.353470446047108,-0.899937411411018,0.6238146186191735,A
11.595718515952093,-3.181893247266544,-0.3723897231423639,A
10.047785583502137,-4.653131966243584,-0.30256345806408497,A
7.363790361544719,-3.849384642330205,-0.10415794878045198,A
9.971981953183574,-2.4831859916454864,-0.2209463379644883,A
7.378213525895474,-2.3693618944557615,-0.2646657270144051,A
6.233635411960197,-3.1743148790662357,0.21121669703794924,A
7.142190840662616,-2.000802348769371,1.1033405561365177,A
7.272217915276713,-2.511137066480186,1.7063053589673236,A
10.779521816239244,-2.4196948761454022,1.6555799473035644,A
12.68936819427376,-2.8517633852907274,0.7792230697789516,A
13.062424642447679,-3.6668020771550447,0.4833308394643264,A
10.446674995685726,-5.224559833465817,0.6628095616194745,A
11.995411989865048,-3.5214313208043246,-0.5334093984215253,A
10.815260590055388,-3.7366440895578603,-0.13509952318219015,A
6.971266069642915,-3.5985962852997875,0.11021590090574225,A
7.355144227689674,-2.452897958954348,0.3171959269369734,A
7.357651721270338,-1.6802723704172497,-0.2527951739267588,A
8.42032697743891,-1.7861884255783862,-0.6277096954132406,A
10.995974550784661,-1.3248244054656872,-1.4186746906895098,A
10.09442172902787,-2.806635289154185,-0.26888658880778404,A
10.430054373568371,-3.1122475574177697,0.2482428803426071,A
10.408473894547358,-3.5753778524097926,0.35520654590794687,A
10.756214329717599,-3.807771377010836,0.9914592825171915,A
7.298206503469583,-2.4295058429699052,1.1971802010323886,A
5.330925623196067,-2.560567116851787,0.6664728281086256,A
7.103038851432927,-2.5143753359799668,0.41152565819948084,A
7.977889362029981,-2.6580548948293856,0.935415045531703,A
11.650185063717712,-2.449272788160418,0.6123285829661349,A
10.815252527624486,-3.2981779359295933,0.6031612979880442,A
12.009699110724288,-3.9020058115095027,0.5439774102994211,A
11.526429433711478,-5.9291730050198925,0.2000004871969202,A
12.849022518507093,-3.8051588719351312,-0.7299340399007391,A
10.253068860931021,-3.666613556170152,-0.5728856854800104,A
7.178223122222215,-3.4277864712571495,-0.33328669882677137,A
8.60549530533671,-1.6767493033072252,-0.7341166924754003,A
7.691849404482856,-1.315394856418299,-1.0800370178684187,A
8.665695331887388,-1.180873452024737,-1.3223194827337421,A
9.720929827842307,-1.5711441819212928,-1.463469191990257,A
10.138569050582166,-2.5516348900831014,-0.5526653715119052,A
10.340026596554322,-3.2301703396207144,0.26860461312440354,A
10.958809825645629,-2.6405503118269635,0.6189100664412093,A
9.829102364470504,-2.7872547869368143,0.7544428831267861,A
5.149677516285079,-3.021048794773202,1.0713867449881733,A
6.773997974560713,-3.0763272309075536,0.9741310059027299,A
7.067501590675499,-3.4294860606093316,1.2939932107815464,A
9.97108888148637,-3.5668003816122695,1.3259949013019994,A
12.853918003064248,-3.3776920528024528,0.31983787762196103,A
12.870056160185465,-4.810792023762453,-0.24723128190121943,A
11.24115731072654,-5.777308885728726,0.41213540382110253,A
11.152542277878952,-4.113529679818844,-0.2744833327676952,A
13.39434871325035,-3.7575496481027497,-0.6808839394243672,A
7.873696481569429,-3.16363902093856,0.6416546819144541,A
6.987381281884036,-2.4722843031266866,0.385760832974307,A
6.951955921903659,-2.0124387587005153,-0.4746888468262009,A
7.436332999474939,-1.4456945985639755,-0.9782142969280251,A
9.835615740029334,-1.24136766331422,-1.5679273134177771,A
10.377736833074009,-2.317593257119951,-0.7000432150632424,A
10.962174450546662,-2.8971123107510164,0.2298382898721177,A
10.430671297013449,-2.7566338187174413,0.012351335226135338,A
10.89324820282114,-3.9387077036319598,0.6655053689843531,A
9.9114258294287,-2.430784827203231,0.9948521405755633,A
5.448784164803079,-2.613311098199665,1.0824645263947639,A
6.766915089374335,-2.68010070642882,0.7926063305001078,A
6.969121925969513,-2.728195873822201,1.1419655298114408,A
9.97403982751314,-2.7774575689748335,0.9903405706013357,A
12.409625528694178,-3.15380414540092,0.08237649728566904,A
11.737841598034963,-4.333021136749807,-0.1411354619582777,A
10.38188215124555,-5.642152745338696,0.4841709835451677,A
11.528143773920627,-4.696855360395806,0.007836338326490782,A
13.950675695773851,-3.4347153994141686,-0.9462172623202334,A
8.383525197490052,-4.020776604754811,-0.7042989155421976,A
7.591092720044692,-2.757305533787881,-0.3337663483415113,A
7.365862045678923,-1.324096614249407,-0.498753081756644,A
7.9766125645923704,-1.1580510899055796,-0.6751625187215872,A
9.727932377103494,-0.8885845188255002,-1.4026443249632765,A
10.456190030791731,-1.7890578974193614,-1.3159027454884107,A
10.732387332278206,-2.8608438534996483,-0.23955673560139698,A
9.662169237932295,-3.283970226290834,0.9062529475127956,A
12.061446503168215,-2.955892173237428,0.4022777434199887,A
8.037069264964574,-3.1452281721470623,0.5874151932196114,A
5.482132129708088,-3.1623089493547014,0.6109887835833889,A
7.079452182233708,-2.6660581446647535,0.872468006009532,A
7.779812339616365,-3.3944031690342253,1.4598490833185003,A
11.377917599214978,-3.4500393007026737,1.1115361445086374,A
13.034401015392103,-4.199334632853454,0.40228340581361033,A
12.628043645205034,-4.779168764312254,0.7693785124436606,A
10.354013174063727,-4.486834134447394,0.48546208825638815,A
12.4643155348459,-3.0319671637904513,-1.2947179472268942,A
11.019195430364741,-2.5698673707670094,-1.558268710013459,A
6.907292625111589,-3.1053548370635378,-1.2039755584369538,A
7.6340282313265995,-1.9599665551331191,-1.132858197019477,A
7.114651182050212,-1.1390595946302837,-1.1334651511464817,A
8.265720311855244,-1.092433280705025,-1.2307536223486135,A
9.65604127084222,-1.1922392212413033,-1.2391895185129935,A
11.835981570385606,-2.4240350885190414,-0.2272250004085067,A
10.995435213466349,-3.092705337426108,0.30213655017954394,A
11.649383889084918,-3.200644907924046,0.3888197667979174,A
10.600857092794389,-3.336763086087095,0.8234548139822692,A
5.275147262767588,-3.237982521301095,1.2701089160107468,A
6.6755085038575,-2.422604366609487,1.019383065614313,A
7.434881282227757,-3.129425036769263,0.7976526809118186,A
10.050854189960885,-3.5605074968855073,0.6370730626082414,A
11.610646133101419,-3.6595589334638543,0.4206403097402174,A
13.338252773619963,-4.077692085775767,0.21944093034084255,A
11.394925091464884,-5.204826355241374,1.0394647480102879,A
10.416842576019583,-3.768317938651139,0.278520834945772,A
12.966236001327387,-2.918792000914745,-1.008913522673243,A
8.370422076585953,-3.4667897443360274,-0.9408152549507678,A
7.957519130735041,-2.41400135802443,-0.770044521105464,A
7.744852744812211,-1.492118969800705,-0.6779674804929282,A
7.59701019372222,-1.3253279237578106,-0.9951940187668312,A
9.527935924943858,-0.9707243165900531,-1.1123369362613136,A
9.632488470999876,-1.6825268343049937,-0.7504620445402477,A
11.884484854660997,-2.839352424765452,1.9422828109008512,A
10.139805336239222,-2.072057972972842,1.778413489821744,A
11.203658255386603,-4.976726480373006,1.6913872073439151,A
9.045436488241325,-3.0761529209347143,0.5982146925259538,A
5.950832958323957,-2.8514006310001987,-0.020106575207963596,A
6.816222627255039,-3.2539740053572195,-0.13578603459444927,A
6.282521437976267,-2.7334298109044872,0.1743093460432109,A
10.269534361894479,-3.1015504939110925,0.11251249217264485,A
12.075773175501215,-3.341554666890437,0.006011559932481101,A
12.986437065316437,-4.279223419325013,1.0562262727928058,A
10.354995388961806,-4.967720909979647,1.8348884912970282,A
11.506049949119765,-2.8533063001839665,0.3037795291106072,A
11.146951046454095,-3.204026577181284,0.17709206056126375,A
7.593105176018122,-3.2975793877968416,-0.12754732705284896,A
7.506646802832598,-2.443433549323439,-0.30750480825647547,A
6.558091527167525,-1.922078679655213,-0.26667384788017984,A
8.966398023139103,-1.6058180523477903,-0.6428414142433828,A
10.426529534045875,-1.5574327217673314,-0.6975366473182459,A
12.578394362524309,-2.588765573073924,-0.28455877826075066,A
10.902197004073626,-3.5955673165452118,0.6798992383946236,A
8.330862359127394,-3.7844838153575906,1.8697480671431375,A
11.260481613529,-1.4533426887164167,0.4318638810429914,A
5.582184226609582,-3.038849933407724,0.26821498076514083,A
7.099618804470102,-2.660675841803094,-0.2416152322834545,A
6.448491196256615,-2.2622541036045445,0.5344310709997305,A
8.664712074130138,-2.0249142707536394,0.8079263947073515,A
10.796272438456622,-2.4789551610357026,0.9935489294291246,A
12.34208874248928,-2.982535389373204,-0.0005624193096640519,A
11.748189194187612,-5.529524863646135,0.7409866323237434,A
10.59305488312441,-5.668343508847362,0.004482407200267147,A
12.185812683919488,-3.9972605100628575,-0.5732609820883773,A
9.358768659492224,-4.410843806169762,-0.540469247954468,A
6.496413652394056,-3.5447544990169457,-0.20094598967976088,A
8.615672524170767,-2.1684083530524156,-0.5465263724913898,A
7.966427932018707,-2.1077339412600384,-0.7393365625936361,A
10.068651282944588,-1.4562738852515413,-1.2450959331678941,A
10.531924354844582,-2.0918057436068365,-1.0238181752753555,A
11.664761803317292,-2.774376760075555,-0.5703723158647971,A
8.635902564206058,-3.2894939934048426,0.34077759980056005,A
9.898248779201827,-3.965193654573372,0.8371075940927644,A
7.902652685513303,-3.233488570727978,1.4867354816943776,A
5.941033912935227,-3.7224693779807194,0.9728354276937572,A
8.514791132386508,-3.6861523506020992,0.12499299152000455,A
9.576697416206663,-3.398912982846763,0.20245384527736146,A
10.95251206755497,-2.8475022304743254,0.45076196757376585,A
11.878095914326833,-1.9876715946656567,0.4842552696830678,A
9.44453837276797,-2.1194593337493397,2.0975400920585834,A
10.082646216693917,-2.6122369874716593,2.5925746360608133,A
10.951398909570141,-2.8129406733610236,-1.2392141281024762,A
11.520541324981705,-3.8874163085136724,-1.5466617940635088,A
6.960299050295782,-4.107436737281623,-1.0410432523421291,A
7.247019026370275,-2.1732206311603344,-0.5423429607209456,A
6.303903165467282,-1.9009394208173502,-1.6048414264111268,A
8.238413313989907,-2.827706136017003,-1.2424400955248673,A
11.118276285922963,-2.238455106261785,-0.44114177355340506,A
12.046625704047825,-3.331919150990183,0.6580439356875893,A
12.94152035373414,-3.4758055465198407,-0.170462716256088,A
9.82351960171391,-5.5663803515376955,0.520484721134175,A
10.869222511997407,-3.013800131331983,-0.13470084451034595,A
6.998067301596192,-2.9724097873215505,0.04917654265118727,A
4.97996029322705,-1.7411810281038171,-1.1150867584575923,A
5.645019339840863,-0.7030437680684523,-1.1581970749205122,A
7.708744731611181,-3.199646075081782,0.15461650686940065,A
11.779222278914457,-1.5891592641776742,0.4962528244670207,A
13.70259105203197,-2.3425982095634557,0.42932734635544456,A
10.765674541566352,-3.8723289314574028,0.653066517660763,A
9.593390319570721,-5.618357043840724,1.2802408060340877,A
13.902054247809172,-4.468971981414826,-1.3436193326613444,A
10.852831553960977,-4.67635531168478,-1.0760177857711002,A
8.309517367894928,-4.7070252009333124,-0.3094272915482213,A
9.61064222666023,-1.8538569825072098,-0.8435196506246168,A
7.689242039394588,-0.9866239304798481,-0.7440611011709966,A
8.394015954968298,-0.9803958287774098,-1.3676156998693119,A
9.286203424009093,-1.2110950184696234,-1.1945796874806824,A
10.41818410797351,-2.0897904820007653,-0.2535587503700356,A
10.589955443097166,-2.9812624810203623,0.1193427379986476,A
11.006262186293931,-3.783150534123928,0.6550277842595361,A
10.13865580010864,-2.6380240256427716,0.2689104026933462,A
5.275225642897193,-3.2628633281143706,0.7685490095257675,A
7.193397621276581,-2.316684697962783,-0.002763159370285638,A
7.084014624626641,-3.495448773629,0.4311577396566092,A
10.39729851545757,-3.371300214228333,0.6055307690385849,A
11.803564574714429,-3.5679877179131583,0.4063087384863906,A
13.91904807447893,-3.9028691321641884,0.2684372310666137,A
10.468208970802557,-5.819540018840058,2.121039432287022,A
11.387907345383503,-3.8613651421304724,0.575284416578376,A
11.63599294522082,-3.6409519416969545,-0.8717840667889624,A
8.997979019066863,-3.5595029177784263,-1.5000079384042813,A
8.317117476862407,-2.5792456437089797,-1.2779521113646377,A
8.618626302534793,-1.5396644572495761,-1.4865165665553557,A
8.48823930848986,-1.3196027513062705,-1.6139030230140925,A
9.958662148599009,-0.845289676990968,-1.937989961165863,A
9.039223823028955,-1.6881598201393861,-1.021946233092015,A
10.419593185356618,-2.377724268251706,-0.11753932731961593,A
8.694423702432175,-2.93328774266728,0.7418679297639333,A
11.773518673489553,-3.0711069569248552,1.109460868665069,A
7.252122278506002,-3.1422621518385894,2.474064966984583,A
7.232786473264755,-3.239562116418659,1.9355765759102443,A
7.138686445854032,-3.00273489831662,1.9348807231985616,A
8.733800214135321,-3.8784613227042986,2.3786325109599717,A
11.184369209982568,-3.690917781234917,1.7400899931053961,A
13.28495281127229,-4.947076860197191,1.6997010080451838,A
11.919943663077998,-6.17477217044789,2.365593790076794,A
9.029050781314032,-4.5930972056010155,1.3047026375308601,A
12.78588512454265,-3.39719665650064,-0.14681521975575879,A
10.448283642138202,-2.9946445910043153,-0.7116954947546332,A
6.844839162621213,-2.829990370443682,-0.2670399722306162,A
7.501222581720167,-1.556742922724688,-0.08834313417467905,A
6.543819368356293,-1.2054996995858762,-0.2545567831820127,A
9.468027225366326,-1.6767615301964756,-1.0070722718812692,A
10.122304408535062,-2.2275722549097505,-0.11805893805901331,A
12.947040889044859,-2.50227588865887,0.3880984689137488,A
9.407752485762302,-3.562982637118726,0.9401140844400578,A
10.255369387141194,-4.723590443536355,1.6836206458887697,A
10.482612953539116,-2.857318497728663,0.9605481770650537,A
6.315168051511052,-3.4532523759186033,1.0229999661494837,A
6.434844295991811,-2.491563369657211,0.6680554929088823,A
6.923602812637912,-2.6550751749724726,0.5599171754458204,A
8.266538750655522,-2.9494617250106385,0.5565382902047621,A
11.27522605610867,-3.430212806646414,0.7084557687914053,A
11.87047698044222,-4.145962341504899,0.35202032491188584,A
11.195331602567292,-6.1348227336495755,1.3825823894017717,A
11.54675575589122,-4.9008141950831865,-0.0043933129887963555,A
11.513750887220201,-4.70702286519006,-0.2869497020276239,A
7.941182600311409,-3.979532539878744,-0.2233965654139398,A
6.970889173099181,-3.318946377345113,0.06932578868914233,A
7.393245052629999,-2.326793998949346,-0.010784524371528692,A
8.99501906322373,-2.1007591177872245,-0.35883847837670907,A
11.09669191671242,-1.8022535657025753,-1.175575141134417,A
11.360072096121439,-2.5262146555667897,-1.2845634939483075,A
9.94693496807194,-2.871470360431483,-0.4826215332966711,A
8.5273556174612,-2.822004709503417,1.0302600109565312,A
11.682552625509114,-2.1803180327519733,0.422203996658643,A
7.2258568416293745,-3.666237305998127,1.3682354897005966,A
5.648640756678599,-2.4187408126710594,1.6481617866126872,A
6.507821772105011,-2.5499138987377705,1.8652914989189664,A
8.227097287863721,-2.7815147336327506,1.588252338335798,A
10.638147120388629,-3.928282142529516,1.1474030514949827,A
13.37948502985911,-6.164505419042401,0.07713717488164208,A
11.626124440450162,-6.073760908676517,1.2505243516506575,A
8.947006340870654,-5.401279274109616,1.2113678447847742,A
10.08146203837542,-4.456855000101566,-0.08542173640789053,A
10.590358306694196,-4.370280462023342,-0.2840337849525908,A
7.3770428036581635,-3.6152558311667677,-0.14521369218927066,A
7.614167946770167,-2.9169750978243636,-0.12092180124540723,A
7.952657025994418,-2.059105003352102,0.024698937218928508,A
9.406023589680236,-1.530060963141608,-0.34610480936817845,A
10.59427142155328,-1.425565824447172,-0.7379486156844727,A
10.51516629949112,-1.9687165581135742,-0.45469390639641444,A
9.726329441063383,-2.4799864789808286,0.24155235031899935,A
9.475730138876655,-2.8584623846456334,0.7722381449237709,A
11.240268119707311,-2.8662396714683505,0.04078785457580822,A
7.6093696167131,-2.660542641580588,1.3078966402974672,A
6.356439755884642,-4.362940294345094,0.040097205693054555,A
6.943256670029806,-4.892982028152668,0.024650839262243426,A
8.494781630053954,-4.391010983997676,0.2830971594435526,A
10.696159313688526,-4.830219976159156,-0.15250073450094612,A
13.085456536155442,-4.866890999825795,-0.5939164537426005,A
12.788922233808172,-5.675338708949187,-0.11199540139044828,A
9.818458919671912,-5.079411209059676,0.8635655806246522,A
10.700800114724839,-4.247723745331087,-0.03693126268201297,A
11.286797294200387,-4.231178623957484,-0.6294575875680337,A
8.91562454444856,-3.335428998248366,-0.4976270908360359,A
8.874031382848932,-2.439022915529849,-0.45119127968561923,A
7.777382248043672,-1.2688432035990835,-0.586553194174834,A
8.377172039743503,-1.1644682714167292,-0.8468277855245239,A
9.294983796457508,-0.7409755500263392,-1.25762965480065,A
11.280924192369161,-1.9199517122512744,-0.6012024313086489,A
10.096943502024743,-2.258998915821913,0.08693107690991582,A
9.665066543812834,-3.4943313863411,0.43206998687282655,A
11.899952511079217,-3.93450280714661,0.47138893195172604,A
7.388395974960255,-3.8039058809338293,1.3533053421998014,A
7.31242315681289,-3.345689043115764,1.2325294822634925,A
7.7010186486110825,-3.450217876901494,1.0727125192425166,A
8.696301380172129,-3.9194651403461207,1.0557501711067794,A
11.587342229429206,-3.88742726354899,0.7535677819767208,A
12.800091884950128,-4.264807509358693,0.11735047734549696,A
12.257892728567025,-5.19124455900223,0.24032053064673914,A
10.263359299908652,-4.5086269973122475,0.21957502905288456,A
12.59042015829193,-3.701442777597664,-0.45757262427045337,A
11.33459736539621,-2.88614602768869,-1.5816787320879824,A
8.98636486336527,-2.4551863490391432,-1.3061849255458147,A
7.815228083159752,-1.0405330633983896,-1.0894354937503041,A
5.668254852454563,-0.5387351548459932,-0.6334525806589957,A
6.919463375110659,-0.38170890817027264,-0.7963873232302716,A
9.05402690809647,-1.1247267656316207,-0.29564916741190794,A
13.131917944662355,-1.5662550488939315,-0.41638062140924703,A
12.623956707149254,-4.167557972627077,-0.16904806317417442,A
12.212061861361619,-5.4092186157373625,0.6839440160527456,A
10.482134684068951,-2.9118579938332334,0.5799126702041879,A
5.724636294681089,-3.8707222259071465,1.1360022686368079,A
7.095939138628845,-2.486232400602786,0.3603288798645292,A
7.283739835270974,-2.915713223408054,0.4816246800957023,A
9.153915070307029,-2.550559829837719,0.25583467661142756,A
12.301664321547461,-3.0600798307365173,0.7943727457241978,A
11.66960598138802,-3.2082284135720815,0.4559154384572445,A
11.860170906592378,-5.087111110936953,1.0041656454508792,A
11.639343776436116,-4.81679679951613,0.24445322375541476,A
11.91422767440429,-3.8311774614184864,-0.565901307540073,A
10.391583416089158,-3.140451330900333,-0.77102613590631,A
7.643396984108429,-2.899854697612848,-0.460891188167473,A
7.181179176163812,-1.5248224943628876,-0.6536444999522587,A
6.084845876472559,-1.2120558764977347,-0.45888636554687096,A
8.830662025444797,-1.0919521221397335,-1.1700356352597963,A
9.50232193668634,-1.2948633962790872,-1.7033945244314033,A
11.403538444591263,-3.091089554280562,-0.9527155386758769,A
10.807539706401498,-3.7941701598356654,-0.021993757368419894,A
10.939829285640204,-4.653040563345737,0.905993276705404,A
10.809186166028987,-2.8632807051360256,1.2998862023435334,A
6.917678024371245,-2.7433651699111694,2.611354782237256,A
7.0049140475148,-2.2629623870898046,1.4195594353955463,A
6.6535802690867065,-3.264078584381781,1.9832090859815525,A
8.82066374325941,-2.8341551550466115,1.3023013022142214,A
12.884594673064138,-2.777230815519099,0.8593737598465262,A
11.37183979575801,-2.746105297373652,-0.8056193295550382,A
9.894718135593642,-4.6189046946779735,0.866467784275459,A
10.168384573709968,-3.8683457169075792,0.21330622887819928,A
11.903876786409041,-3.1214156069723695,-0.4262245253273407,A
9.651386902281294,-3.3724331171807167,-0.47058809873619206,A
6.715246337003724,-3.4180350590121695,-0.3918757697420547,A
7.770891769489854,-2.470476554739264,0.060404655961378534,A
8.110459768632927,-1.5911609186395665,-0.2134499765799981,A
9.290583269590043,-1.4517006146435536,-0.2377444062663478,A
10.300771758914447,-1.189229698955406,0.16502346543244398,A
12.15656875649248,-1.8649348907128998,-0.306108323376991,A
8.815814865159446,-3.873515588572326,-0.14041451648983883,A
10.141181152244767,-3.9017003801777275,-0.8296876583629899,A
9.160038270120207,-2.385237387025762,-0.7713559740744454,A
7.091904145582673,-3.0250201392430256,-0.5116825774394469,A
7.325152307391379,-2.6157432376073655,-0.2803605037332123,A
7.486831886533813,-3.025168948516239,0.6503296658817304,A
10.251171604049867,-2.9183526741595736,0.3910624299625315,A
12.578070641316385,-4.39968399652277,0.16150236646767094,A
11.016724354560116,-4.954241060090446,0.9472531588401396,A
12.372764301771817,-5.85961807582712,1.1754983139765987,A
13.240878822445199,-3.6285002510247293,-1.195049683370881,A
11.828840263654275,-7.002139616075428,-1.0925001969286332,A
7.7856507142285984,-0.6580048335771371,-0.022335098609944586,A
8.034819480721955,-1.302722595694291,-0.08248634249303784,A
6.514714302639413,-0.3122871635998698,-0.9427185621286491,A
8.43458503647336,-1.701745751386804,-0.8507421772414409,A
10.535486694700554,-0.9288644575853144,-1.8912052009737552,A
11.75805101890495,-2.0319165570850886,-0.8539217156168025,A
11.663437987483041,-2.4850668221903582,-0.25783258317876634,A
10.087698771157587,-3.173965776020419,-0.07378553398586295,A
10.305045467080864,-3.7135215895955636,0.5275168273225899,A
7.182585909242719,-3.671616731937264,0.4782732684274212,A
6.71213343171252,-2.7227258341365856,0.6763056895481551,A
7.998108627681254,-3.110480443900856,0.5283957411410315,A
8.890504537601796,-2.961846029370593,0.7754436015791123,A
12.040888732879518,-2.84804218955519,0.22796871620032133,A
11.259897843704287,-3.479774519752769,0.0026064062054839657,A
11.872891657391662,-4.603852164568424,0.10733823340353467,A
10.60883311355254,-5.094990435078077,0.378324060899285,A
13.217525791427947,-3.423029712928692,-0.9978931443658003,A
9.927209281348478,-3.486058046832362,-1.3822325150704105,A
7.627609104234056,-3.2466711194703435,-0.7936168395055699,A
8.449742165218158,-1.3429575613400049,-0.6002417928289799,A
8.167071418020418,-1.3150864335148647,-0.6376385383320365,A
9.275144843700975,-0.9764098814029568,-1.2904142795411488,A
10.001028880045695,-1.0512165826594506,-1.3163742917917785,A
11.220095940671062,-2.127789768002229,-0.9178884346982612,A
10.15627679767407,-3.1114295830385603,0.6425314644022988,A
11.514485155359717,-2.8258526165807116,1.6948683124024837,A
9.299404514409334,-3.4189709555662167,1.3489032304019704,A
5.211563112193022,-3.4470816025299857,2.192003636186174,A
6.6119900130036235,-2.7573943712585978,1.6739103844854315,A
7.818873154914826,-3.1927977375996996,1.3431859758192823,A
10.735776275248615,-3.381613666901024,1.2156954503938713,A
12.444688591840949,-3.6536336143060555,0.5037532996953875,A
12.586566150473422,-4.007835557675545,0.07580138179944453,A
11.069321073513093,-4.977037360565333,0.6348657891285765,A
10.640205417344355,-4.0681978730406145,-0.16725918875750306,A
12.930275084234006,-3.1332413706218403,-0.8437328300984512,A
8.24562462560656,-2.949582697283824,-0.9129239704198416,A
7.687101865037549,-2.6165856200415956,-0.4642481885555074,A
7.126229614804081,-1.2595300846645834,-0.692225051175329,A
6.820599749295136,-1.3446885070404109,-0.6738088670906092,A
9.266989465202943,-1.024317783321986,-1.2310027141488356,A
11.266099289194033,-1.9078097170753445,-0.8136989988304549,A
12.238146898418872,-2.7025729119114725,-0.5605008619579627,A
10.114642422485847,-4.429483587143064,1.2202349187759196,A
12.165558206977517,-2.7851113925168627,0.6612293237916451,A
8.760651742024605,-2.8667402145991927,0.8165767783190069,A
5.113251025700013,-3.3212139758695574,0.8179109208687382,A
6.50827352452476,-1.829776159387985,0.1511961546964044,A
6.974131553947449,-2.652117094575378,0.2728409156798167,A
9.89841349162422,-2.9346462937421474,0.5525117728596165,A
12.133814162984452,-2.8684314601918834,0.07151667598770613,A
13.886473326395116,-3.834880386264872,-0.24110025842815017,A
10.658785331898974,-6.107388390587707,0.6608368611347724,A
10.666235938404581,-4.551460333455915,-0.4620980128461807,A
12.283636443202793,-3.8210352166802233,-0.33549820472726044,A
8.13526798028817,-3.4420889279859455,-0.4598088435591326,A
7.4574520629428,-2.6695870212751966,-0.4048915684882971,A
7.530887710208804,-1.9707896000592173,-0.3712226157429736,A
8.05501376794719,-1.8059191900735134,-0.6775591950384836,A
10.1844236379211,-1.5292361135475832,-1.2833152111068256,A
11.436337894164256,-2.200026947113069,-0.8856961842878702,A
10.985039531106816,-2.902077936232068,-0.3055294570524766,A
9.07407373734792,-3.066563707431506,-0.35384248746998,A
10.702691127951091,-3.2492952532602657,-0.43064684327464614,A
7.182043389972479,-2.511611718727982,1.0569805864947472,A
5.5349666996360085,-2.284609334320979,0.9629860066246716,A
6.455911736035463,-2.468661879292047,0.7700308404774738,A
8.581005894024807,-3.7056534029755386,1.296234144989943,A
11.52289420105589,-3.9550938138112874,1.7234330273364495,A
13.573261787289166,-3.8200214581281084,1.0088543984001954,A
10.37864371296237,-4.589075077372896,0.3013360639105623,A
11.155682548574521,-6.412984763721208,1.0818723922841071,A
13.12716694738848,-4.116114754870884,-0.35930540477111894,A
12.404017380742307,-3.5572389617635523,-1.1513018292995392,A
8.551331810472375,-3.861654673603209,-1.230194282020517,A
8.728730638965214,-2.2370211037584897,-1.403881249596193,A
7.8449658232682715,-1.2390311103670182,-1.2034241025387742,A
8.314807524607378,-0.8869822623993532,-1.6007731498729283,A
8.731477335925474,-1.1012051166515633,-1.4584646160989967,A
9.347867011888786,-1.6934468801201394,-0.836936682192117,A
10.583013596317972,-2.164087005038916,-0.2959437241768698,A
11.313012166592234,-2.836514184727735,-0.050259070873405476,A
13.16586483779989,-4.4574512354677,0.5098561441081617,A
8.767129649676944,-3.71590569366417,1.2372324974423254,A
5.9219871159541455,-3.309664293020333,1.2637433576372232,A
7.140202694854859,-2.843604476371658,0.8488810706213096,A
7.293890437727554,-3.3834299892817996,0.991981402482482,A
11.556842433816108,-3.6221459656257298,0.6515959479665174,A
12.36526337449244,-4.263199010823297,-0.37864435079657077,A
13.641661375994493,-4.872997408882251,0.4056007585318693,A
10.264257894241634,-5.140862637836007,0.9982739331020651,A
11.993186668971145,-2.559611218544545,0.4850212975657408,A
11.651605249928386,-2.869273695006555,-0.3997238772132061,A
6.73052800143587,-2.648674727154582,-0.44797083963757756,A
7.072705149476344,-2.064789199273816,-0.6955776997510372,A
6.551568518024279,-1.4483965946158979,-1.0164053622762548,A
8.905407416786524,-1.3933103304319623,-1.0372003092591515,A
10.213747609201913,-1.2730429707146789,-1.3264391012946048,A
11.499727140469453,-2.332132978758501,0.2179869271153096,A
11.563014022701342,-1.8701777979079994,-0.45019075561365945,A
10.324613919864621,-4.173120515495318,-0.25024087800153105,A
11.035704544195333,-3.335818655749176,0.5277038836032241,A
5.601042216061892,-2.5650064737129727,1.5850987326701218,A
6.49726345510583,-2.5771347547827888,1.3043855314389163,A
7.228420288282126,-3.065992665460763,1.142212433658482,A
9.760351046215781,-3.162550654903842,0.7610487964239453,A
12.166531726875334,-3.4522994563198393,0.3068802074086894,A
13.59818425255356,-3.639173454627498,-0.025124952691383873,A
11.512815273135864,-5.067360884100161,0.5563996268839628,A
10.24417245178848,-4.650111233288685,0.15359780022338446,A
13.022222854751124,-3.074779717021008,-0.5863511939451478,A
8.277211440136343,-3.33982731932748,-0.40890508198433323,A
7.229092557035501,-2.2916552218023196,0.0003167772113568493,A
7.366524496002661,-1.8783954607408488,-0.47769532939222076,A
8.569137537523144,-1.415169388443698,-0.7505111763758722,A
11.621138620454918,-1.2927237230051447,-1.5734693278811496,A
11.229536983085433,-1.6307314019431043,-1.4930175082526251,A
10.175403177647324,-2.16020938060079,-1.0736315535008123,A
8.937807449112622,-3.246088443617118,0.7209531672374155,A
11.038535729054962,-2.2420605719713365,0.026064793681247592,A
7.445460033878248,-3.2956286260001386,0.6428126744896099,A
5.80207914505065,-3.667725350599198,0.852017101593169,A
7.825204160935764,-2.6722504133531717,0.8136208658413451,A
8.646821324046948,-3.4401953649830013,0.8313086021876794,A
11.680475119976583,-3.339439595131476,0.3839787970209043,A
12.467770646548564,-3.751775544199686,-0.18780451033545906,A
12.645729654444342,-4.584500840528308,-0.21688775908665586,A
10.046011489078694,-5.301048177417277,-0.09647294789143286,A
13.430222530733094,-3.56079001632836,-1.2072200253794854,A
10.0186949228792,-3.9486183149403358,-1.4110941613486405,A
7.132903631611797,-3.623308768820528,-1.0639987818853343,A
8.325171592198053,-2.023752273101388,-1.5242096664693292,A
8.552863884375755,-0.9886591621784139,-1.4615418970771992,A
9.175461784214301,-0.5524681746870511,-1.622441694289507,A
9.436406192290802,-0.7702972863580589,-1.5490614637025795,A
10.483630299752889,-1.6750336699463826,-0.8485048504827182,A
9.504072647380577,-2.293093885059032,-0.41040949983682545,A
12.775738692754432,-3.7021140633953693,-0.6220760493648131,A
10.536766603407422,-3.516756310013283,0.6891494612889254,A
6.083724082229462,-3.2147637656530446,1.2034285946467231,A
6.898041960870288,-3.1237590876674446,0.9808414592967224,A
7.308187831326499,-3.071701619115298,0.8058966490885134,A
11.116587734992375,-3.733777178881306,0.6631565186699221,A
12.82953253133078,-3.9171647161011807,-0.05499164825691293,A
11.85686882343134,-4.682230674426904,-0.20879876992873544,A
10.761678673980438,-4.872218965640089,-0.1742053186865612,A
11.683814498463478,-3.307732873421138,-1.504967030036831,A
11.076531750235675,-3.1531906760408095,-0.9607358581956047,A
7.538808990366379,-2.856512628415134,-0.6155326360608888,A
7.6554517171989485,-1.8325495040520712,-0.3343966878177024,A
6.8731847811655795,-1.3489104960760447,-0.42727328617063187,A
8.828947965196509,-1.1721862386799886,-0.8608430335570497,A
10.601396819629693,-1.5264641433456438,-1.6381412853024448,A
12.808431826605027,-1.4849272332382117,-2.1100017456903633,A
10.710221286204616,-2.9750140913205163,-0.2739426928754173,A
10.220011006060034,-3.2362179004772145,0.4647909782505615,A
11.17170934842227,-2.8149027335231236,0.6802027033107687,A
6.439852913470652,-3.139870639519425,1.0015650487271006,A
6.397923970387057,-3.2400773199859443,0.3043320881658324,A
7.003629048809373,-2.9878623664210338,0.3307817225613958,A
9.872135636072771,-3.0895158565400163,-0.042569506632434355,A
11.421411618133952,-3.8068664625036392,0.30374364846157026,A
12.534513403664633,-3.8296370618115416,-0.33208149694242306,A
11.335807297392492,-5.5650934967047965,1.0065471734051794,A
13.341518078776506,-3.3632900756152124,-1.3155616782546837,A
12.15040916780957,-3.1368165918870328,-1.0993680842195166,A
8.261410623507983,-2.6591081727157815,-1.076765391138495,A
7.475950374832657,-1.717437686599609,-0.5729210031612947,A
7.3282686086791,-1.0483504667565817,-0.6507007136746155,A
7.320232363315307,-0.9762786882404346,-0.768755232250443,A
9.611689556159238,-1.1443234677070413,-1.1091172347726999,A
10.889983334683295,-2.0615809444740574,-0.45428621726698415,A
12.745655393921549,-2.668568676267324,-0.2057213066698823,A
10.52098348402062,-3.8816302788848884,0.6585540358035171,A
11.92814936892086,-2.7133387447305215,0.6038942583288606,A
6.583164105440571,-3.139778340975068,1.1605309065184526,A
5.46310885333589,-2.9997934556920978,0.6935204369243108,A
5.988662056615037,-3.31503381032439,1.211508833498406,A
8.509460503790525,-2.846920213652371,1.0981234636263548,A
11.49643502978635,-3.604748243733548,0.7517971129940069,A
14.81276518421133,-3.519926750772238,-0.11987014131647795,A
12.817111667844893,-5.6038904621736725,1.7240873687300902,A
9.431261477400543,-4.107031550854485,0.6484661213735736,A
12.494792113619129,-2.8928204327232687,-0.9022266027906228,A
10.840887591669272,-2.6942079254592763,-1.1906690210493394,A
6.535663871948292,-2.953535896259022,-0.7677441565854886,A
6.953210831661811,-1.8198389911051414,-0.2889348038211678,A
5.959544477191553,-0.9524421094891284,-0.033478298255910685,A
8.448111556836349,-1.045931512294449,-0.49772828772392086,A
10.276026887903186,-1.6445221168059792,-0.5226694816777921,A
14.331829055416733,-2.5307303255048312,-0.5144556716468982,A
10.738848592129939,-4.18542316340371,1.0853914228101114,A
11.352079700738118,-2.8502996650254113,1.0227148611133066,A
9.650257462085404,-2.4232134228943045,0.49690291817793386,A
4.873114012110447,-3.761046296855803,0.8855830183992962,A
6.373529370155894,-3.0199643049104083,0.7204539066608676,A
7.473743785900727,-2.860228046637679,0.6624023911660231,A
10.380070797386614,-3.266645812291438,0.6034104859372295,A
12.310333845896848,-3.0493139652181758,0.27037539480058187,A
12.90306235082096,-3.739376952962922,0.5040972757571489,A
10.787825759675087,-4.889324022918703,1.0456794769136057,A
11.949984819568462,-2.9457726690146178,-0.5832746296603935,A
10.579712390415445,-3.2796737655668196,-0.4793536576113675,A
6.818974427103515,-2.790915808620315,-0.7796427203544554,A
6.770965798080056,-2.36689045539352,0.008063223112368102,A
6.922856634181622,-1.5280097243861666,-0.4030940825531237,A
9.20343629567729,-2.1489906374830117,-1.0248914076310622,A
11.28489047586726,-1.120500431288593,-1.4713247431816805,A
11.600308735253964,-1.4250616068445308,0.4696567218388525,A
11.703272295913125,-2.0668709606071474,0.3172536687610424,A
9.673406192858272,-3.1145605690281717,0.8040860149298711,A
10.402852992347023,-2.780683187117006,0.6416715755871015,A
6.226412344038969,-2.350864854285926,0.9744989155415411,A
5.15472790807706,-2.4932810640446466,0.5067507223898935,A
6.903516376480076,-3.0701275713096097,0.8549074350636147,A
8.93289302583177,-3.0631761578668257,0.9666186989374619,A
13.382037608671057,-2.795776431468868,0.5965017789709139,A
11.872436373762895,-3.2455245603318486,0.3614672387796231,A
12.2613479971637,-5.340982547469475,1.6720079107246066,A
11.533238527041666,-4.577418707754386,0.3300975694606544,A
14.038881173660794,-3.3081340735427087,-1.435025817759993,A
10.18160800283021,-3.530566468354418,-1.405358032227113,A
7.023290086652275,-2.607835579093984,-0.9222901074403888,A
6.59952149016946,-1.140362983621055,-0.9772453447244881,A
6.244981943055345,-1.0205220806067132,-0.8595202886718334,A
8.83352951083924,-0.6631472551784864,-1.47247270898892,A
10.47791695070519,-1.329188302906366,-1.6768263857169197,A
11.966983937912337,-2.5590800339305284,-0.871015667546167,A
11.491951132471366,-3.321217972686256,-0.05991807837983089,A
12.125950981919319,-3.871688591390396,0.4992108472103921,A
9.859902099732283,-3.5002161498555204,0.6812986939013497,A
5.4648648327815295,-3.1265705619749538,1.126547096042188,A
6.8125086542293705,-2.7494944358625837,1.0625650145296857,A
6.9854536863224,-3.025565046698734,1.0298063713400243,A
10.588859176723059,-3.371057777587271,1.0620079977582457,A
12.833521810835773,-3.1439975720057167,0.265289399813663,A
13.235217324063928,-4.177213799272258,0.2813934589384747,A
11.277407410856677,-4.616324801106003,0.4930244953232765,A
11.564542700403395,-3.312624433008968,-0.5586222746509077,A
12.48004620125568,-2.580445288382153,-1.6231837937598796,A
7.3679963371058435,-2.4866313517835756,-1.501734324714591,A
6.861541274852629,-1.9920635404107392,-1.001381329362333,A
6.853035608001686,-1.3076250767905515,-0.7838541015436207,A
8.20645014097015,-0.9491679935312393,-0.8047783352411506,A
9.866332474491244,-1.306913728593115,-1.1682343568780877,A
12.628055805472773,-1.5934828089100301,-0.9935203983342166,A
11.943554268819918,-3.2431086962380364,0.13857819203191296,A
9.767867850458071,-3.8353047564073446,1.222829865509155,A
10.931518015753145,-2.7673818889410104,0.9532790570544484,A
6.8494705471286315,-2.9438388086693257,0.8297774970865179,A
6.5270036720816655,-3.6759597745577617,0.2913558186476322,A
6.994671598533428,-3.0363480159614027,0.6008408965484815,A
9.029371743214758,-3.51581205158861,0.5772870454714328,A
11.38352576616282,-3.3129541542893275,0.43565529762737315,A
12.541648411587818,-3.690270261363854,0.4386257862727209,A
11.923441613391242,-3.7633927863829726,0.8492474474467641,A
9.71413256375164,-3.8256284190125944,0.7523602525660716,A
12.709066389539895,-2.4918584472166483,-0.5396038296860035,A
10.05219517778449,-2.5946483280498858,-0.8720336190469344,A
6.806841712763065,-2.7092813615543445,-0.49650614814431654,A
6.987646476477332,-1.599023850751316,-0.3200936642975058,A
6.686265794015343,-1.6035793165794345,-0.10756724217422428,A
9.314468657793782,-2.534756336271799,-0.2320168385567374,A
10.829835593360663,-2.5001387984818493,-0.26984061029761247,A
10.763967578520603,-3.4067366209751904,0.14167696671040786,A
10.218100889745422,-3.421483112707786,0.07198862315247029,A
9.089306999898703,-4.715511209636758,0.40897586712496276,A
9.483244939423756,-3.201984720114121,1.2072324628070892,A
6.292153132498966,-2.9763578236163144,1.0921522233688403,A
6.546509084032746,-2.579852183032889,0.00524549691622077,A
7.096108198698723,-4.236148501495569,0.9628677865306959,A
9.590376419757355,-3.771004293010645,1.6873675557911088,A
12.387806672954708,-3.4559224556960952,1.3551819682301518,A
12.695787444046513,-3.4989955389144014,-0.4210047481370558,A
11.068100578021436,-4.814457404337956,0.30933574249190826,A
10.781117314681065,-3.2076162214879274,0.07553655948761616,A
10.320480882040785,-2.7638621506506675,-0.6979829292057869,A
8.27983041974196,-2.900456840214851,-0.4248781188746544,A
6.4963857382923695,-2.526938975623658,0.15231152544710283,A
6.83517397999414,-1.7123759782962134,0.42283586461605244,A
7.537533593235059,-1.7304506576033143,0.19232741069771744,A
10.548970859506142,-1.918731649330357,-0.2599948678895047,A
11.876488077496031,-2.5052853654907574,-0.13092730534384994,A
13.431362901416623,-2.6614131650359667,-0.31907256014135804,A
10.01854456761159,-4.27469092559219,0.7291267765055166,A
10.561489084756692,-2.6432893365992705,0.6462647868663086,A
5.540806580819567,-3.1043806782127343,0.4364911540112341,A
5.807499998652137,-3.3985103654254476,0.8190239323882798,A
7.026418549253306,-2.449905658016911,0.777502711266188,A
7.180887399121196,-2.810328481070871,0.07834297955698702,A
10.6919463100872,-3.4901150229164295,0.13101323602308376,A
13.469517583065699,-3.346176978277063,0.30045690328976804,A
12.333172732876898,-4.248718220704119,1.0630403687186039,A
10.978963056211336,-4.594259963815563,0.9091364958011504,A
10.400862809348379,-3.289110860483109,-0.08856872463423336,A
11.162426576321224,-3.1425599222515976,-0.6150535310259289,A
6.921738790027208,-2.930990832656534,-0.8875365058295858,A
8.044512545932362,-2.5284721283430662,-0.9771105524879947,A
7.604139969640996,-1.736099839466706,-1.0823981011856287,A
10.366381416492274,-1.1869847091202574,-1.3682319480736873,A
10.590256487840216,-1.1706842239141522,-1.6419106894493136,A
11.381712959903878,-2.5139820595696842,-0.6541367752691041,A
