accX,accY,accZ,Activity
7.142158144093917,-0.4168306313397156,7.070437379393609,A
4.349010046879034,-0.2989785165213263,6.853354456714804,A
2.963631682819789,0.02540520885571651,5.734221080952081,A
3.3033554564814427,-0.9470611366694124,7.238383010322522,A
4.881826198562729,0.1677709775019608,9.669459174481096,A
6.308945160595375,0.5600784197426977,11.21682759426282,A
7.594491056466038,-1.7493629791732088,11.465052095690092,A
7.113315073669475,-2.8939893972465183,11.515479697854262,A
7.611214094607529,-2.9569882913848744,9.44158666625784,A
4.801531961554248,-1.1776783352843372,6.365533103564172,A
4.256208793289417,-0.10779861537131918,3.3453471999743907,A
2.6320268447002046,-0.6018690280935537,0.7675847136097473,A
5.603390495691041,-1.0079798229791688,0.1084265958442608,A
12.207381962987496,-0.9961908324033004,-0.6830629162090129,A
16.38303567954439,1.2175353259646435,-2.9468831054076534,A
18.64334308107196,-3.0763882748371554,-0.3071072726021796,A
16.403754010192415,-1.8720652956498343,0.06649974449073504,A
10.398634830285236,-0.9118636972393669,-0.345641657202328,A
7.397012815667755,-2.2447193656740314,1.2519623483693092,A
5.957716625289339,-2.960975127952147,-0.2620884312420237,A
9.235059238971711,-2.537578962903448,0.7749606978725494,A
12.659637432957727,-5.7037023925008885,-0.6370104504489288,A
16.749981803645774,-0.548900064316684,2.098509828843678,A
15.793196302384215,3.8883906788886584,1.0268850831566485,A
19.582142257937633,-0.5210755885274474,-3.704152758504005,A
17.356134118303768,-2.0858316048086123,-1.2754947007365052,A
9.521924250957094,-2.1224007145988604,0.2741436145001855,A
6.743133432846142,2.009722671417474,-0.8807142505343013,A
6.951273226227781,-0.1235933531689532,-1.4771846375952782,A
8.888512510455234,-0.01354138130058706,-1.7061974810041312,A
8.301629399786936,-0.5410586135214557,-2.980639402046612,A
12.538408391538129,-2.2635683790292536,-1.7831804357690482,A
13.011972439015674,-3.757266860811372,1.630553777231702,A
13.61815639488508,-2.1850498871467248,0.04093695381727805,A
11.828788169397663,-1.8621935637567266,0.023874628938744313,A
11.735148655972012,-1.1860633621228411,-0.15284420160884538,A
13.517078822607118,-3.1427257619684283,1.27700314353523,A
13.205871325269698,-2.248538938707963,1.9056927551550977,A
16.542516290906654,-1.6324087408423837,2.655783713419318,A
16.37421092398883,-0.4718378919968735,0.24328268764320296,A
19.53360946783616,0.5575364976590284,-4.069698123115855,A
16.35562934907138,-0.6598926575771044,-1.150169016307634,A
8.54292273934214,-1.2066009238292597,0.6016840668942218,A
8.68150031325868,0.06838075103837639,-1.3973535113297035,A
8.176528333140404,0.24538853378572903,-2.48276138292843,A
7.6390258114711145,-0.1337037349588335,-1.8774289330410636,A
8.026158072845565,0.04735360730980187,-2.445396208359682,A
12.018486289063842,-1.5064689213790974,-0.3165025760991108,A
15.391211347248884,-1.8329001416821002,0.8867323355966926,A
14.994097906681501,-2.358382376391301,0.18081300917240115,A
11.607916248936354,-1.0931204860223287,1.0062169509069225,A
13.515815148951049,-2.5116186038292434,0.8591624612277603,A
12.369473615308328,-3.0132985694550714,2.0730077927107935,A
15.046026957929596,-2.2112660914581785,2.5786196468047,A
16.317051894916766,-3.530151003771838,0.8701219093114937,A
18.486843139040058,0.9181686688563174,-2.606601538836002,A
19.20860255906676,3.26279301107004,-3.680282022340249,A
12.550750986348199,-2.1573287774467826,-0.4696022076768494,A
10.517688610428706,-1.4424150296189175,-0.6490951273801744,A
9.767694246824995,-0.04512853335549861,-2.1786512450132527,A
8.68609391377638,0.7957517575627177,-2.0549370395464623,A
6.750731896682002,1.259380181695641,-1.3797444897401447,A
6.636652598800744,-1.3403933215132549,-2.132731918274198,A
11.278748163672393,-4.971167568010548,1.300353803721352,A
13.441671365907457,-1.409049610187082,2.2002825947151834,A
14.609743921203606,1.2200436122079932,0.5673101116764324,A
13.766316728378555,-2.2327466740489657,1.0020580025640209,A
12.793775904701489,-3.3775685971255864,0.9153111820956369,A
10.813776379440595,-2.576769194086551,0.761659570379556,A
13.795660675257558,-2.303741726511261,0.7310551147580399,A
16.93625533981784,-2.689527518217778,1.4272756475336268,A
16.880450979476652,0.9090242177517185,-1.241508272097997,A
17.880127680707414,3.319028646389496,-3.259849140041672,A
12.287622346483545,0.2395344608577474,-1.535867331887129,A
8.93573956901974,-2.4890372315206806,0.219312144802022,A
7.599550811635837,0.22934889155435303,-1.344904691641221,A
8.418117077604355,0.5035158525773948,-1.952477570957433,A
7.306144052539349,1.156334652869885,-2.0480169930918293,A
7.892789440367375,-1.581882895276396,-1.626884301364099,A
13.598247865137706,-2.084947098354056,-0.5089376528201643,A
17.24449543347573,-1.5858850227630903,-0.606623179224519,A
14.956874986936416,-0.29929351042376146,-1.2251110832278762,A
11.334805654963848,-1.3917091165598634,1.352464022698537,A
12.372633065791861,-0.9091714810321371,-0.3972441055855123,A
11.447278924079725,-3.48174235492799,1.064912997310665,A
13.46799656769193,-3.1908082763801096,0.911329490813603,A
16.028325052077076,-5.583939008682231,2.66843968830133,A
19.49641177215088,2.4256718870495826,-2.0824180829633656,A
18.56463144852849,4.570084624137953,-5.075797852027735,A
15.470304651140072,-6.023504474521373,1.641060689179804,A
12.432605906708595,-0.8660866407865936,-1.55593683465683,A
9.168066463770161,1.4319896353651815,-2.9217763500825003,A
8.151381052028396,0.5989866585924163,-2.1549375550506005,A
9.831752511345194,-0.9787580277636739,-1.7066943867102031,A
9.123036926901063,0.031773344164556704,-2.477936973860987,A
10.7020895400163,-2.599330879067987,0.4037835876804228,A
13.38002211115443,-1.0386250899072687,1.6404496051183821,A
13.39401337778977,0.2235544166982459,-0.2623880859135263,A
14.994286067910489,1.3640308221265764,-2.224978234665583,A
20.040528335425815,-7.905804571131113,-0.4124705504660276,A
10.790778454366514,-6.369550312367008,0.3411597144237526,A
14.606185347469026,1.6717736291390637,1.4057923086235768,A
16.84037103735883,-4.925863608336069,3.0519527104463173,A
16.892207217857983,0.027221693962180982,-3.4311004174175035,A
21.122168690484585,3.4630333825840327,-3.4844304394436216,A
14.801633975912694,0.11287452532880698,0.2044567620871377,A
11.184266376305661,-1.0696996537234171,-0.43020517817149867,A
9.153692395840295,0.7662403861762034,-2.011784514770887,A
8.461956085276992,0.7847265070915435,-1.6046781569924264,A
7.218199469387622,0.6368424914652486,-1.989259974953707,A
7.750035862246445,-1.6597713266025178,-1.7282924137845335,A
11.34268344607896,-2.350266822298596,0.3736492606084092,A
16.387447204206634,-3.1513787194051406,0.9169212483563491,A
14.966389107536088,-0.5229299285959449,-1.0761325681669807,A
12.699499005819137,-2.4375142801898924,0.267471925561501,A
12.927678622308498,-1.7746653159371553,0.4016042010106447,A
12.223387012478366,-5.774350705509978,3.2553645802333295,A
14.805208716693949,1.4165641888953422,3.572524098289013,A
16.05892982886699,-1.291845061932854,1.3809669375792073,A
18.485556759885778,-5.843348171297657,-4.584233622790005,A
19.48102705416538,5.371584727690664,-5.609763679064892,A
12.85598440463092,-0.02726971775231285,-1.6366303723584001,A
9.098892960269477,-1.6959026470092384,-1.7511181160917109,A
8.710667916949758,-1.0763766731016986,-3.4984330840114177,A
10.327344354065183,0.054848911699035566,-3.1733722718773407,A
8.299646275451412,1.2695301710350302,-2.546777743307629,A
8.411192887128653,0.650973320619979,-0.46003547412277,A
10.88829675783697,-2.541958750337065,0.46154212293362945,A
14.409222690379886,-0.6199169892561859,1.684853366685906,A
15.001829830328768,1.3427323554901005,-4.018677709029951,A
14.956513189817635,-3.110067571360956,0.6726862389543466,A
15.792305295733724,-8.722337185136508,-0.5992501828575024,A
12.355514192444168,-5.296516420989249,-2.694449229645395,A
13.998378247297811,0.8634143797951614,-0.90353139069466,A
13.567032714216836,-6.928686492825616,-0.02726892046133882,A
12.577524482962092,-7.101102836817917,0.24211076614341787,A
20.622943220199218,1.7003717861878458,-3.2091666815338202,A
18.01382534412174,2.447807030706095,-1.647547990932742,A
14.748976287327904,0.3140222135993255,-0.1855768696494056,A
11.566758766044956,-0.5085685895911143,-0.6932376820518795,A
9.935676482353651,0.723493017734427,-1.7770961488919206,A
7.522160287287976,0.3240004808932233,-1.6344075145939758,A
7.420970283177415,-0.26639054838515713,-1.4203050825294672,A
8.853983545889065,-0.9114067491255613,-0.5884933669196032,A
11.040708794015755,-2.111653788803702,0.9033029406724533,A
12.06369604839434,-4.326138752622546,1.8258389653411282,A
12.923260836255631,-1.2270801634142776,0.4859806981600439,A
16.626573201614256,-5.266238384566409,-0.29732392879579356,A
11.408115277135423,-3.4137688213488513,-1.1203713050856663,A
12.36024401171107,7.314663643503851,-0.6361554789172584,A
15.674249120870636,-6.326436764029387,2.8158146775332824,A
13.89797512959508,-7.174705067725528,0.14965663913886065,A
15.641951441881938,2.9810530234193218,-3.1420350157266896,A
13.627592680169933,2.229275575492885,-1.6917548322634062,A
10.874643024751627,-1.2969124717522542,0.4986953211658447,A
9.780625181919255,-2.334169506444156,-0.6784115741717675,A
11.036129300411377,1.6173233527777402,-3.232329058574509,A
7.970313637222333,1.4192884894874807,-3.3386933724903374,A
6.85148525408338,0.7617229779869268,-2.4090591491714153,A
9.629028417030874,-1.6713997004336099,-1.0072131816392462,A
17.471416557295214,-3.0593879988434916,0.05832453292442677,A
13.44593674250254,-2.7508452379183885,-0.6834839861968511,A
8.427990347655689,-0.1767272366894249,-0.36418175348601073,A
10.610875391238407,-0.2734334104788904,1.107200761599146,A
11.70258463566511,-0.18458198204876838,0.1099951197476735,A
12.293906207460786,-4.380131799904066,0.3828443991036987,A
15.716051494748127,-2.148018722525882,0.974644892494271,A
15.988300877625091,-1.7846207762044362,-0.9500784202419507,A
17.554941158727313,0.9291117424808004,-4.999620815681499,A
15.129238827863873,-1.9445213253179987,-2.925319574454065,A
9.063271622847799,0.38521236472808495,-1.5023931325112523,A
8.015244087026545,0.20891511456911038,-3.245182743271757,A
10.191508707061207,-0.35180761952721135,-3.3900382567174194,A
9.77558333873723,1.3596903343834277,-3.861626018615396,A
9.764971021760749,3.1869395955619106,-3.2610679982590676,A
11.922495174632509,-1.1813151484661595,-1.2328507971938758,A
13.223281813175149,-2.981548862115843,-0.04534875615140266,A
11.692165814286167,1.2941708259569975,-1.4505258631850997,A
11.539701963240674,0.21631486195660746,-0.8492890185539661,A
12.61025438712906,-7.4345896385852726,-2.7329475510657866,A
10.615058800671347,-7.749623535065692,-3.2472516918490473,A
11.609807182103212,-5.281710403310408,-2.5680535703570118,A
13.105525578875419,-9.170542387377472,1.624304050861619,A
15.850678633451304,-4.945854272823148,-0.9374437116539538,A
19.83719369212006,1.159249227253027,-6.609204159841879,A
15.989620083811857,2.8357317789769354,-1.6724773753543922,A
12.503226966174386,-2.0619567740055915,1.5223410677371125,A
8.623789072504284,-1.606892550784129,-1.05952313629669,A
10.496916368881417,-0.3089743239851324,-1.789126617007131,A
15.873080130783553,2.1608083946572747,-5.30518925353365,A
7.7178693886828444,4.090148171778392,-4.294648570866334,A
8.462855367142094,-2.7988642181263135,-1.873077040670326,A
14.426718717617673,-7.381056905190014,-0.23947280368309284,A
17.30094839107893,-2.5184443833657526,-3.078215597164295,A
14.711707524040495,-8.603116582275325,1.3312636104279507,A
8.911573876708072,-7.743070435041332,-0.6603931955420363,A
9.113411790455599,-4.200563539950357,-0.24010977380750032,A
11.067363879755407,-6.524342458710734,-1.8606396181810756,A
17.41597541637,-0.29894405874124513,1.3908573901208279,A
15.996978644319299,2.609943322564879,0.522136772414798,A
18.107065142275022,-7.340940997413871,3.3619322833997205,A
15.970025413237536,0.8268100055666436,0.18265904468821426,A
11.611518976035587,-0.12120391282015293,0.27339244142551217,A
9.740499384833576,-1.4919906924586679,-1.1617869987106244,A
9.417122706661203,3.319015118941301,-6.632826207164702,A
7.021468659088734,-0.14614861587849928,-2.4394685328764742,A
6.739815925613162,1.3432099499785366,-3.4556135555094323,A
9.118056752641369,0.6622583306619094,-1.0000903313693619,A
15.436789700824114,-1.2780656100091772,0.07422905373980683,A
15.25722394274228,-1.683399074247959,1.164335432219366,A
10.255516480035618,1.0226129992929802,0.9093161354755168,A
13.109593870807315,-2.352114482953769,2.2417252122746207,A
13.839770586626953,-5.261969715653293,0.9895823249022316,A
11.773530691577806,0.4620537715584312,4.360129835999523,A
15.579660334236543,-1.6490858508387707,5.0409089946255,A
16.598625589758594,-3.727326381560171,-0.6627240279375601,A
18.750670624873948,0.9764257203842082,-5.0197071790486465,A
15.210842074740961,0.1315599704689275,-2.4239806224383775,A
10.111243482475508,-1.0407030044872823,0.3785760463790493,A
7.374103678978618,-0.8646444770969031,-0.138103391162754,A
8.480128673282257,0.32975963088589416,-1.872638922862456,A
10.162638065429064,-0.6600124531614138,-1.6927177212507072,A
8.611284164729856,0.8438849122350063,-1.7367189415961783,A
10.673293670992924,-1.5982515221665339,0.961331166443584,A
14.116123435584683,0.1592898145849092,0.33698558389532196,A
15.158289791404583,0.426362989092745,0.06821829789471671,A
12.502544264997638,-2.653412925293352,1.6173893514747828,A
12.345397587566032,-2.161228786057963,0.6984070574404456,A
11.777224206733257,-3.0231352563669933,-0.31012554088753586,A
12.284125621937896,-1.3750113363321337,0.7842078094442826,A
17.228554830671083,-4.587132743802463,-0.021048128581628748,A
15.843682197894072,-9.558690433888287,-1.3551384600995624,A
18.56844652329151,1.9730396986413958,-3.066055212872964,A
17.996550222339827,0.8216942767790303,-1.3777113112877573,A
8.722741757408068,-1.8825944377081016,-1.1047206090478592,A
9.580083495898053,-2.252716544296122,-3.971158577094025,A
6.0487234571557185,0.05034472362164168,-4.503421409038961,A
10.544883315431541,-0.9686408750569188,-3.09270585976883,A
9.61501114938769,1.656187565431093,0.48841950871762885,A
9.553662940578901,1.1068339613509086,-0.8843918374232569,A
11.300735482872577,-3.3271143370763654,-0.18711017365048382,A
15.436179213301962,-8.309215570913953,1.8196355988142316,A
8.341013699388492,5.903212889993659,-0.2253384660813844,A
13.216492270684876,-2.3400185590491893,-7.408660557289614,A
8.315306487556205,-11.925385851597603,-7.851869027491924,A
9.795663869035158,-4.923132156867763,-4.323669131106746,A
10.082718646253596,-6.316882585938397,-4.945415986088091,A
15.48121874065733,-8.56927132451975,-5.62662942421118,A
14.068676788535763,-2.6521647061290516,-3.456923789949233,A
16.107334841516433,0.5903773622460405,-2.87581614826903,A
14.490154006666248,-3.483616109011144,-2.332625503767557,A
8.772748366351207,-1.605758466205681,-1.2329424644730504,A
9.548492668317332,-1.4476341290520818,-2.6539609092725738,A
9.773602056391267,2.5387739094669772,-4.281714708045946,A
9.289560426553612,1.5259553349146753,-2.6066173847305976,A
8.535132049060454,0.9282627730734421,-2.683296260405423,A
12.470599725192953,-5.213809048003303,-1.8865320315940044,A
12.974669523060795,-2.689543353517225,-3.1186603900783934,A
12.808370784261072,-5.674310838484069,-2.9564276621801056,A
8.369922780484142,-4.352500475363566,-0.7230578172512829,A
9.566238699458074,-3.4699294519043917,-0.5365678066319822,A
9.015544751058025,-2.061768502928827,-1.3090342309219478,A
16.37440289797001,-3.7512706590695633,-1.4363142752037987,A
13.868915722813682,-5.8321301389453275,-0.9016757434559732,A
13.887408457176882,-0.8684138519237528,-1.052566778411041,A
16.788135159986112,-0.252494678660018,-2.3441608838809698,A
11.803540162857198,-1.2478776230793613,-1.8350389125241247,A
7.932712958607937,0.46139844301512334,0.18248609893820505,A
7.3472721072497995,0.10954266117844375,-1.4641080092901622,A
9.598756279114577,0.26496531769503456,-1.7332591153593382,A
10.456093721848973,1.0862116266810602,-2.438826338477461,A
11.423354465929702,-0.26191177301999674,-1.368627367705273,A
12.928784274607224,-1.5722946155244308,-1.2325333982099056,A
12.122443749398103,0.6870526210212827,-0.9963943449209414,A
8.007114871000198,-0.1611225686621077,-0.21029415973610022,A
9.200476572276136,-1.5614082010932018,-0.8994907086807035,A
12.144853215077317,-3.823739886530755,-0.9293845994622546,A
11.650617102158762,-2.5573814218286044,-1.6024302020126944,A
13.491361866922993,-0.3753377726723138,-0.8090890826962354,A
13.6525339115052,-1.967374580305484,0.5371711105617786,A
12.963824255041372,-4.040395713810958,-1.5051289883391472,A
16.759096980061624,-2.299733991478212,-0.2227435139156785,A
9.463492559396652,-2.933360936905407,-0.9800529329908741,A
10.765153048254675,-2.6791927947712004,-3.071944786482619,A
9.911256638058958,-1.3212724310264128,-3.3595090614391143,A
13.221565974711673,1.3460660514876752,-3.0742271229288898,A
10.975887085315035,1.2971707156186192,-3.8516336375379816,A
10.623414357952754,1.8583359299016906,-2.780442823622348,A
9.64451935083437,-3.404459451646508,0.2045165852722306,A
11.782556432137252,0.0001007342170011073,0.6658275903625941,A
12.025362231136322,-0.7204000029004716,1.9330815674496067,A
10.673950642461133,-0.1562068711808945,1.7112909942379326,A
10.43215319134571,-4.978305401404587,-2.903090339672197,A
11.625754946599184,-7.383697562969722,-3.6991128907293582,A
13.392286231370779,-8.164916760362303,-4.985140254486784,A
13.37321209402925,-3.6638371351176255,-0.47335069998473633,A
13.156683294111147,-3.9997595042139,0.02264830576412694,A
19.153059888503055,-1.6739473455609941,-5.3328582442161,A
15.394194245177601,0.41652288113437375,-2.913071570449567,A
11.165363825156112,-0.6301417531299323,1.1262942859637406,A
9.215222605612366,-0.8012616391816565,-1.3435422971187527,A
10.106956503974958,-0.8154546528982488,-1.5273123311316068,A
10.505897496575045,-1.0073882197341477,-1.7488744280262645,A
9.971646687219952,1.1262305801065413,0.1228495079884267,A
9.26255109600614,0.8657176018532097,0.5608861814923649,A
12.980221008013746,-1.499413673069605,0.3608738737608507,A
13.043366838808765,-2.0649335064938668,1.0676337489694196,A
12.542499951743277,-1.4836352487837208,-0.4427234009915424,A
12.004001391641118,-3.2408520291835132,-0.43158022441052896,A
14.403031256016106,-2.753233326552444,-1.1338374191244125,A
13.990576324720909,-6.3979826934374415,-0.5577807757822576,A
14.692709664399898,-4.649507311431038,-0.19444765819446047,A
14.216878861693269,-1.5279621181900311,0.7743526532097605,A
18.30040304302261,2.377307020129432,-2.9083218525304555,A
15.440337463709625,-2.58980037732519,-1.7239405471466664,A
11.953560547763615,-4.289566823565177,1.3156988878989218,A
8.90969258512568,0.03275337049298049,-1.9757964056009367,A
7.654285640103563,0.08227452925407124,-2.058830940608158,A
10.692346861222022,-0.6594864463263879,-0.40843189406382446,A
11.516707378056385,0.8749229246116909,-2.314131226294936,A
9.933726964144409,1.9083774320451834,-2.9607647834250077,A
16.006047004851055,-2.5255212952722683,0.9712714588524322,A
14.756340451958373,-1.8251789951192299,0.31684249871861,A
13.293421280157032,-0.8936195798926548,0.6674810708731976,A
12.705662629907856,-4.117016548280886,-1.0388123635030875,A
10.15880648670685,-4.658398782418405,-2.1442192258316806,A
11.453489035425042,-2.5509213381395384,-0.6387632205461118,A
13.078251386853658,-1.3872621388405684,-2.3440217243635977,A
15.123278241455665,-1.8843003756802217,2.6589054836785997,A
16.401882435230608,-0.6236241925098049,-0.5079367463698882,A
19.025551147602794,0.048569274720379606,-4.034945105755159,A
14.618149774656198,-1.179080067615692,-0.8009093949586538,A
10.355213067534564,0.23219091565861444,-1.7354569042033825,A
9.424852265852492,0.6543345981910725,-1.4160738120160525,A
8.459106241220118,0.5014700879313443,-1.2073642680649657,A
9.038115267848523,0.7156476189484717,-1.3002056114208693,A
10.098090815605282,1.461655656243606,-2.98708499415855,A
12.726758327334679,-2.654448886896356,-1.4809055258768051,A
15.139212150577734,-2.0633460977514355,-0.43993610556352236,A
12.737705750847764,-1.089268415278157,-0.12780463246835516,A
10.741884017164391,0.10916421391851937,-0.05243399401520454,A
12.830303197041236,-1.370688203773251,-0.3274850780787653,A
13.029519019178787,-3.3349042373153623,-0.16308165472985237,A
13.323609200346343,-4.594976228416397,1.432169873021813,A
15.99739689636748,-2.7499675391545217,1.6548430800505551,A
14.656123430212128,0.8165218149230213,-1.8622852918134294,A
17.66532108419385,2.4190288056045106,-3.9810390958690896,A
13.97403728796494,-3.0332378529658355,-0.6733257127403863,A
10.990974289703058,-2.275960456104182,0.09041740363218966,A
9.99211012433386,0.128526966603672,-1.8620096220129665,A
9.330136412350912,1.6493888220333315,-2.4482553395427535,A
9.226536789940823,1.4312298266232686,-2.2897397353892184,A
8.056046090389321,0.8340019698841878,-2.9100739420644888,A
10.063708362753589,-2.4232710423891235,-1.73113249147236,A
17.125789614006017,-0.004951945965031389,-1.2347819873499757,A
18.674613361994687,-2.88846951684428,-3.0590972268104157,A
11.507594996138199,-6.242897245899719,-2.931452996418857,A
9.898860760006663,-1.3977646498541938,-2.9655053974978816,A
10.701323884453958,-5.705046664017257,-1.753103938212679,A
11.36966768741598,-6.755743359768765,-0.9023426368638074,A
14.142680882526955,-3.1313545219570433,-0.7104523344900873,A
13.259878074572422,-0.023937221553683136,-1.99013032982573,A
18.070997473544537,-2.0173626257883956,-5.525689440137999,A
17.690939603592398,-3.4492010788753635,-3.956633721063299,A
9.501999960446348,-1.4925014579436755,-1.9332298509648453,A
7.575875452840139,-0.7387890342162599,-2.445846908451528,A
9.062454584016262,-0.3780329872207613,-2.9939366196006176,A
11.245757302480785,0.4350277293924563,-3.272231276427947,A
9.463317901459078,2.562524103266286,-3.1135636062142003,A
11.426168246560392,-0.6049158218986698,-3.0933888886780085,A
13.825336810594258,-4.979415137236675,-0.6977922289929542,A
13.615455387633743,-0.874760940636512,-2.012700484958324,A
11.120818820770639,-1.950520059782279,-1.208376432091149,A
10.170811697117816,-3.6876329242756363,-0.6644235081761788,A
11.263308915428176,-3.2617606351105817,-1.083984569466834,A
13.685704312157947,-2.396834933063831,-1.8337356374885816,A
13.666717462383923,-1.5693960416301969,-0.07456611050977456,A
10.232845927918278,-6.782770538967037,-0.33743404226175255,A
12.974930543072961,0.284471118273271,-5.681267196151688,A
11.960817383316972,0.9688571009707622,-5.797503928060522,A
6.600051872783904,0.5264173491133224,-0.9588960617701023,A
10.375345577480063,-5.716890403730982,-2.0745874413943826,A
16.035258332599962,-4.115434385988106,-7.345194559205435,A
13.964589258353511,-0.6105533870359481,-2.95556809853802,A
9.35927210827394,0.23362298014771504,-2.664677492802748,A
8.290301867444342,2.5406453528436748,-2.8737027724577184,A
9.583960214718656,-1.3730785847441491,-2.581234978474157,A
13.827729968234326,-0.05975373773603748,-1.8879498972331064,A
10.91910593361696,-2.3979890570097644,-1.3682597970067985,A
11.937838807142708,-1.8504091446608766,-0.5558807792526325,A
9.016683184641765,-2.7777954966704836,-1.3736093176897326,A
12.519222938573863,-3.0096520741698978,-0.41071517072489583,A
11.738181535599246,-3.7590923817650186,-1.9790471084374397,A
14.72884918177901,-4.794414190334666,0.4404446173892573,A
16.900801517012184,-2.4100580360225154,1.5563108809392165,A
17.85301870942508,3.160741686108241,-2.6488411984566618,A
18.553831470453293,-3.2465160838013305,-0.5813142253357597,A
10.587131470554237,-2.3757996501244367,0.21019335778575576,A
8.510718735038521,-0.6535635718605527,-0.6323563296795505,A
8.18762325074837,0.4596871324218894,-1.860511959839877,A
9.296026825881079,-1.2500083926517354,-1.8652470616668912,A
7.277106449659428,0.9715153243226085,-2.7373986034354854,A
9.213447666645928,-1.5534950835070485,-1.4029343925687303,A
13.802341629970119,-4.2335973791715675,0.9964040155154218,A
14.28450265306216,-3.0802053538202703,-0.4040372553619516,A
11.620548276837042,-7.408759416197495,1.3231281451408787,A
8.357546940435792,-3.459365155018266,1.9932361889449977,A
8.373692257410264,-5.62823526299357,2.457055976141073,A
10.898488574164757,-5.88930564297177,1.1379615258380125,A
16.695204748264697,-5.271864390709866,1.1355770585405593,A
15.987301942106104,-2.6020655393749053,1.8123028154968683,A
16.342449851565323,2.9343596273105073,-2.1960941314019173,A
11.78037442341546,-2.1545949554363584,-0.6820008731038545,A
8.455446424007075,-3.0887578702836094,0.8320469792931443,A
6.8328104357264365,-1.9886462462036976,-1.2759098625704945,A
9.454910197466731,0.28628154406943396,-1.8233580851322142,A
9.221113050367759,-0.42819366814302545,-1.2894413685999764,A
9.20600635097097,0.35042402646702286,-1.6508292850311521,A
11.326056493837704,-1.070558887018587,-0.7334330411501784,A
13.972578674697864,-1.4089883763736402,0.4905820787051952,A
12.401934071765991,-0.7133335598669438,-0.08410409867615323,A
8.87709394188893,-0.13551800629101007,1.4829293119607838,A
9.86795994669512,-1.2245438623206535,0.2907786899997215,A
11.930035576216978,-3.1682058660618813,0.6851777581589689,A
12.162156061150275,-5.2936113869472585,0.6337460781603476,A
14.670396464916289,-3.4111804801072703,0.9845367861475319,A
17.193574264403697,-3.052142233437466,-0.5546250351692935,A
19.80233753915894,6.573572598435977,-5.195277267202908,A
15.934422745661738,1.2391485875660533,2.452392959864081,A
11.190108210552221,-2.02550927019404,-0.6495161186565322,A
8.37182078551179,0.245121361531282,-0.8711615241835032,A
9.687283607685591,-1.493961463114228,-2.9385034581336207,A
10.100243248280949,-0.9729617490395385,-1.7936177861113274,A
9.187997352754683,1.58645584878867,-2.1372969526743937,A
9.60963246334089,-1.1326176421560965,0.2106550055107842,A
10.855597089511932,-0.9006943734242594,1.3571913443129433,A
13.13777465466001,0.6189891475151035,0.3492188884130971,A
12.340174026722059,-1.4439522387463806,0.5237754190614998,A
12.201566037379571,-3.395601918047205,0.22622467808642135,A
13.313522052833912,-4.839288188332506,-0.15782277214208326,A
13.495671975593135,-3.7695829922408084,-1.7802614983065128,A
13.958163152131796,-3.455092447681098,0.11293253795711722,A
13.65909151199987,-3.58555670255096,2.5555099796287393,A
16.80720929362867,-1.3329868073428046,-2.343961582960292,A
17.10079489151617,-0.1775986477259054,-2.570546743938125,A
14.86934352208831,-0.26746110431566045,0.4190791172048961,A
9.557993510564861,-0.26417506483471653,-2.000625133389319,A
8.981303810909694,1.4140016948589227,-2.61348473822075,A
9.199872054540698,0.7688833406091881,-2.0715327022854084,A
9.91955253208126,0.024390750055915403,-1.948261701957061,A
9.785692678691591,-1.923253596296643,-1.5467579351985412,A
11.574527833720612,-0.7242572553458984,0.16659961578111138,A
13.969873592536842,-1.6100772075923324,-0.3351409474786353,A
11.691275124738995,-2.348831457186592,1.3890020174720854,A
10.064724532395687,-0.9920603071834624,0.24152340066394284,A
12.119319596451758,-2.171543747514832,-0.5367878481989371,A
11.738033565850456,-3.71620582634292,0.2961388924671,A
16.086333774091653,-1.5707787421887687,1.032032204474594,A
15.682822657303838,-1.3806319751136291,1.6008544341090332,A
14.340018322776253,0.01650184167304306,-1.384884155856589,A
15.735899814236788,-4.074196495687598,-0.3026770642402148,A
11.717375879068229,-1.8703408562141022,0.04103675690179111,A
8.476136175335444,1.2039960156357903,-0.6539412846253015,A
8.790498302579598,-0.5912179399607499,-1.9737481838257012,A
11.116024524147916,-0.868462818424264,-1.715673884087008,A
9.982258222151252,0.820673936090119,-2.7182996470556766,A
9.151039790001112,-0.061218554529091265,0.29182532558569585,A
11.38587015805745,-2.1090049270991233,1.8304334383509577,A
14.71410004628765,-0.5587577954358375,0.9077679496729689,A
11.144152575124473,-1.8709242706889153,1.7723271522180135,A
9.43584334394849,-1.7186741154876566,0.7247392411671724,A
11.47302352252738,-2.7367319028187453,-0.637334603380351,A
11.50904835349352,-4.188015863328746,-0.5232977652658993,A
14.869915709415649,-4.866734513135471,-0.5530178585883757,A
13.811934005993743,-1.2833902653766598,1.8221054940356127,A
14.070337043964376,-0.02859102495830322,0.3124361171835653,A
18.39586533983456,-1.3095795203329832,-3.0460901090977166,A
14.135206627598258,-0.6821832111435445,-0.851862412208098,A
9.48784676044632,-0.4297704348895698,0.23148528807155563,A
8.08937531419159,-0.0181693669612544,-0.8946912015223152,A
8.950827251725043,0.09901969589293619,-1.0892720992698928,A
10.11236093278876,0.17486678325700464,-1.580539001333487,A
9.080206359422833,-1.1458237470926622,-1.581367756919778,A
11.335116469723769,-1.6393597376115072,-0.2043806449439897,A
12.47403982334264,-0.8522557733008376,0.14728192077948984,A
10.227219877844533,-1.893054370684248,0.9763963641929767,A
9.05104596669344,-0.8617569671176422,0.5660651730604094,A
11.460941737653815,-1.5051888457075682,0.29375558193389034,A
12.417465648636002,-3.9864118264178914,-0.17190219452629912,A
15.817030407264397,-6.153478198535237,1.2439601175539545,A
14.875726868156628,-3.830029646075652,1.3276422962867935,A
14.096039587291578,-1.2355383149526837,-0.5358736979339533,A
15.31096208695277,-1.5612350031726905,-2.088836617800561,A
9.801792667980585,-1.821548040401102,0.1816562521857914,A
7.078840056941498,-0.5450873945536716,-0.5361698902854841,A
7.276078395688088,0.07746141316839636,-2.2308237691863537,A
10.581927982923732,0.10437457354746787,-1.5497275749582322,A
10.966134405781967,0.8256374757017139,-2.9092437389286636,A
10.597970848367487,0.15006650212762,-1.7859469566201858,A
12.032594945381383,-4.914160448018361,2.247900286839543,A
14.001350338480433,1.531857400913208,0.14436413034291692,A
8.743310138450331,1.8736902487930682,0.4991369093558346,A
8.651607066944008,3.2863756245059528,0.9210084841451366,A
9.948713245636753,-0.3942271835759026,-2.5914332739927093,A
13.971746482498029,-4.971087868813251,-2.6042051672616306,A
14.571099079530454,-8.684348338287105,-2.90067863564819,A
17.81081657311996,5.678186037554409,2.0529897871291465,A
14.640126148836428,3.334085324918729,0.7437122797675249,A
16.769004182518618,-4.608782495339411,-3.9911298990114883,A
11.153474582913205,-3.6423492322624207,-1.4586968035423933,A
7.553334986839122,1.934427848528971,-0.4235060408207423,A
5.676435123347811,0.9306759298982574,-0.026356338391825714,A
9.0967831343853,-2.192355164452711,-1.3930801833136164,A
7.778611498711633,0.6038922996284621,-2.77179278922483,A
10.634792137603839,-0.434735530427647,-2.5192421108419936,A
14.000239843636832,-3.3830711129609288,1.3770099641532274,A
14.522183367061144,-1.70445715308007,0.22742658809297311,A
10.179529361380053,-0.14657717890611052,-0.23655996241422225,A
8.362133713563972,-0.986611308556121,1.0681930962682418,A
8.08003565985992,-1.59767319892606,0.6909967966115729,A
12.248628365514964,-4.0858875808770705,1.4349619765605208,A
12.835194052471813,-4.086807047800496,2.162618906390484,A
17.068797475570488,-3.5979053392283697,2.6301654211892593,A
18.947634005071766,3.0259120122445604,-3.7378913057104124,A
15.948425277009145,3.188096195529397,-3.177400222826508,A
11.693726377450346,-3.2185789757594065,-0.11351204371450417,A
8.167456072512474,-2.1860704399008264,-1.088442568872713,A
5.523772644341943,-1.628186547724305,-1.929532542261149,A
7.667918385838194,0.38585944031951835,-2.3172404028346025,A
9.499781231483816,-0.7361861385650114,-1.1604998633510915,A
11.387306377827386,1.8474826136568745,-2.8647358224104806,A
11.517943156295923,-2.0176605378100243,2.331878819560928,A
15.70485326092556,-1.7581551780809979,1.7364893558553829,A
16.58439403049284,1.5970778400461323,1.141292595702417,A
12.160535567912632,-3.900925166502296,2.0092793580113404,A
9.232214606366837,-4.426683859771145,-0.08896652403119068,A
9.841331541279352,-3.8909048698577315,-1.1007439352686856,A
10.617704905845637,-3.994539988532923,-1.990417483890025,A
13.065442209383262,-4.014852437649664,-3.6020143371379008,A
12.895801442419604,-2.3092842200731316,1.5322055120314575,A
14.908212644205125,0.01709972761925684,4.619934793144761,A
16.0243591244999,-0.7845659222929485,-0.37993874984539533,A
12.303292939773643,-3.298198664277541,-0.699436223813533,A
11.303227123808563,-1.322477106325056,-0.909829908436565,A
11.383326373194373,1.5834998756484253,-1.0302080668688223,A
12.26377448363865,2.1297763961132268,-2.665548616173439,A
10.046237940623433,-0.09343159437815993,-0.8164948276238706,A
8.04792707291061,-0.8909748757943939,-0.755158024722716,A
10.508689453650923,-1.2931015647203385,1.1359806053256039,A
10.634277659169568,-0.605748967874021,1.7914875086151163,A
9.861885909000982,-0.5399843883771169,1.805882657263329,A
12.210894302054864,-3.1984008559445725,0.9408356080026637,A
13.858813473751079,-8.847852432295538,1.801191817471471,A
10.370493231472105,-6.103895376198813,-0.4228366204907393,A
15.211278847291764,0.4144865496801721,0.7430643852972068,A
17.153642006303624,-1.2885494830699118,0.5511274690843772,A
19.83545313134385,-1.6160341481161244,-2.76782799834901,A
18.113092155690662,-1.4175862639482484,-1.2772942233141924,A
9.35264966710182,0.9996318266529127,-0.17351731327063824,A
5.340696518109287,2.113042522063046,-0.11284080018570326,A
6.520203066186486,0.23612115502019104,-0.9036236724979156,A
8.661284881481269,-0.7418003992708015,-3.2799734913174263,A
9.187893605625582,-1.8763315887668623,-1.921129454295165,A
11.205186101266666,-3.287552362176605,-0.6296876220398899,A
12.243835237468456,-0.9070999752161722,1.0861485807514215,A
12.922454363993404,0.6816243784945534,-2.4255171973227974,A
12.136855495456647,-2.0458603803165625,-1.7883610948048885,A
13.400381150926064,-4.440667730705578,-0.1352686082323933,A
11.675546001391877,-5.79347764247488,2.218592109052993,A
13.283562539369596,0.23232339041413952,1.1088306522890503,A
17.26553653402016,-1.7114515351756001,0.9960817400182158,A
16.379232790920508,-3.3984482210152827,0.03318015426768061,A
18.553908602507594,-0.3088106275606375,-2.9330019021962297,A
13.75676734368029,-0.8550581791290128,-2.1631708697447527,A
10.7377572294819,1.127852262025374,-3.365901082604252,A
7.505273707492306,0.5810890891756361,-2.9273987368120373,A
10.252788582051194,0.057174945340316134,-2.870778738933281,A
9.307052160005108,-0.4605794981392836,-1.9044928380624733,A
9.748191701538651,1.1128392126955653,-2.576740615830348,A
8.853268816347393,-1.314837847109147,-0.16862052712074282,A
10.725110974004153,-1.397546622988021,1.2412005019736596,A
13.963215981096779,-0.14921664896278874,-0.13343493673988374,A
12.495822591088498,-1.0028295544930288,0.549834021261982,A
13.64175585705167,-2.671410287304049,0.4488034178703033,A
13.229488150776655,-4.966657927772552,0.4450911597955958,A
11.991419817852394,-1.4040205374257697,-0.020304369758149508,A
16.409513539468097,-3.1343648066926595,0.8955828213793494,A
14.441837581625464,-3.750675445638443,0.7568813060932644,A
17.67560619413107,0.15965345467943073,-1.397829640301395,A
18.728245509237805,0.6979601173269553,-3.2897762931398575,A
10.223427046557676,-2.112164258524201,-2.010292852455381,A
9.02965896818462,-4.475348765784125,-3.6300929498099266,A
8.77620287607981,-0.3897108923688406,-5.3655370446253485,A
8.487791614249828,1.6501379688981612,-4.1111930755542145,A
8.23430775076899,0.8571785572667381,-3.8292664770966223,A
9.930197617720095,-2.591006549159541,-1.3567933079369086,A
12.508822949558354,-3.6595946363933205,0.16287056815683398,A
15.70761306085491,-0.6540693989274258,-0.68149912688067,A
12.894699021206192,-1.4274322232652459,0.9313866846596952,A
11.366513149740168,-2.9950766570117207,1.731367829216058,A
10.926668114498044,-2.907703493206764,-0.8080211203671981,A
11.539049678023009,-0.825211956103688,-0.10533233570132294,A
14.23730672000368,-2.61900376904127,0.08612083891424746,A
14.397062103988702,-4.321384328784167,1.977811243267599,A
16.46832251358587,-1.911705018080938,-1.5232881617337242,A
18.914267888090148,1.476532477293504,-3.904004090797242,A
11.458225983559199,0.7874624179266785,-1.0361465837617676,A
8.161627760045738,-0.17574052725046052,0.2643043648991267,A
6.4705539847764975,-0.5139919957966764,-0.7427324500088106,A
9.070245902830782,-0.8435573601308706,-1.4599023790737655,A
7.953457568014904,-0.26345972347293,-1.91116750760082,A
8.810633518200481,-0.7474703047205331,-1.8997115917575202,A
11.654152934930693,-2.995807539189373,0.021173506187996006,A
14.532712882931932,-1.8169827849330884,1.0119205408777119,A
12.042186195557823,-0.40210489472636096,-0.2094465353005632,A
9.682354075993908,-1.1048838838984263,0.3428791073500695,A
9.73016493965127,-1.6189207201287381,-0.017368909814587104,A
11.596348878551973,-3.212350290257757,1.529747292552597,A
14.929658274015209,-3.476998801060869,0.3565108238182598,A
16.63977567034035,-1.8966219124371233,2.9258451393624694,A
17.251582091552134,3.610786551841053,-1.0367839764983553,A
19.79233774816317,-1.4404006786159635,-2.31639126381437,A
13.251605965635306,-1.6488341701978309,0.3786539724424653,A
7.0078489117426095,1.124603117006389,-0.9958468851374237,A
6.462246934255818,-0.28426802538825025,-1.0908735337882562,A
7.978260636349828,0.5624609779076293,-0.8232825595797002,A
8.10040573827559,0.2796931034778163,-1.7759500103206944,A
9.039042140218724,-0.6594139335030238,-1.3177811427338322,A
12.073497341723012,-3.736406096051058,0.1990008016791228,A
14.308041807049158,-0.7058346865948415,1.43983360433435,A
12.791358161532008,-2.6574393449037763,2.6549472733216124,A
9.184130637173018,-1.976318805181762,1.145916290084309,A
10.003515720557827,-1.4789599512738572,0.3788223790633012,A
12.678509677111698,-2.2880338004613843,0.4936504644762935,A
12.914379384500831,-4.290551869182676,0.8412624737534689,A
17.407744916559746,-1.6546071988852535,1.8978632600627028,A
14.763677078379885,0.2145070512309599,-0.09322134795054521,A
17.107759897909656,-0.42357343281336945,-1.8503132736157857,A
15.124846760134526,-1.6277525365262573,-0.2709211969194229,A
10.881410889568954,-0.6693675863128501,-1.0279525252017518,A
7.987905725656742,0.7740978841385577,-1.3641262012601265,A
7.842551416587431,-1.1083349092314945,-0.4410568332233128,A
7.946644052876772,-0.5887135076690176,0.8711192569556858,A
8.426236927870844,-0.057615320021402294,3.7075448225916534,A
8.225163667140398,-0.8069442958947397,4.128544271438216,A
9.376665676886974,-0.3164879361112067,5.313282655487812,A
8.712034130783163,-0.44100526723101874,5.523774246645911,A
7.3925283698936015,-0.440972085410003,5.441530888984593,A
7.558517748470841,-1.541858110894589,4.961549698586204,A
8.408174852400125,-2.632948807992811,5.778399670743799,A
11.107900833796466,-2.0409655196258205,6.151248808082506,A
14.424059475217632,-1.5319464307155635,6.65201308050711,A
13.062722631039655,-2.245432771619153,5.412882618878822,A
15.422736692003738,-1.677669147659401,4.056269656442494,A
13.110175562032872,-1.1081471475243245,0.7357911784814598,A
10.00101328909662,-0.8493304205196737,0.7094376483191382,A
8.619446642248091,-1.7600146678488646,-0.6983105695330154,A
10.128029703096374,-1.2486718699323829,-0.66033521701354,A
10.576411808128224,0.5496458614321326,-1.920570899005172,A
9.806729509866479,1.730386229269395,-0.8750673454261556,A
8.727196916689362,0.2591870198596009,-0.059397182801275684,A
12.365984420700402,-0.1842503003403143,0.9218604138169373,A
11.18787200516116,-1.3611929195073893,1.6677392808067564,A
9.98041223603833,-1.3841566294250676,1.9740021624417474,A
8.877238454705978,-4.300154357110756,2.4329434901667186,A
9.432542161416455,-4.90701857356401,3.8070507943833998,A
10.137233490006231,-5.60225406627249,3.674746185228584,A
12.670258484589072,-3.2967564527564934,3.2553656760206353,A
13.903539676904854,-3.9897235423847244,3.695289207930899,A
14.517072915457195,-1.409457726295243,1.8607955087762538,A
15.412938923237768,-1.0846381100332632,0.614361666981607,A
10.743151539332835,0.15791056505219828,-0.1987650976211717,A
7.326573873107559,-1.1966615448499687,0.20569468996400742,A
6.886897940615149,-0.49584279491699645,-0.41502401981073245,A
9.852549667340137,-1.0724242414080256,-0.29239014336063657,A
10.877151667141106,2.054147714781819,-1.0180825467607268,A
9.719158970375155,3.5914191609409225,0.14557840148668297,A
12.508877185391654,1.5526024183409695,0.9058446784536852,A
14.305405534897469,0.2954349113647267,1.7203218036238976,A
11.585601567404957,0.9023478894118665,1.7557244916227,A
9.849113948816278,-1.5510069066608634,1.6408368430015434,A
10.896514713988214,-2.1123264088687614,1.4696704563438567,A
10.761621598242925,-4.0217092392554195,2.032646182417444,A
12.52151381944644,-3.7715112394234414,2.4628542321882185,A
14.478257741881425,-2.718965089941209,2.549329908918181,A
14.698305072261796,-0.9379414133632541,1.3725764176786956,A
18.343796670885848,-0.5422435946291239,-0.44151266589376476,A
16.67278909989312,-0.04160852973579852,-1.0740295802340187,A
11.499422764812222,-0.1859501030161916,-0.9895217153096934,A
8.91806181524066,-0.078976279552117,-1.2956185983263055,A
8.44422951448115,0.054556287218135796,-1.1842519758161865,A
8.355381408556232,0.8957029347244826,-0.847862948621545,A
9.53100164303702,1.1827529412620386,-0.7578803425402247,A
9.713257992605756,0.3686480878202379,-0.06425884385042678,A
13.506875209413147,-0.004045449260406719,0.24737399170191182,A
15.05877819883055,-0.7901754820050403,-0.33126086398656157,A
12.803660530306633,-1.895511222253327,-0.0742454169290639,A
12.473340703005487,-1.9762065885186404,0.23015858707297066,A
12.736068471068267,-2.884710353548142,0.007600886681702471,A
14.323286346301098,-4.714897777977504,0.20841799552392676,A
15.781982538599397,-5.870172333020431,2.1917470549346763,A
14.943611230779494,1.2304726598721127,0.9840552013573431,A
18.5060517384601,2.2503507326834824,-2.6756187545941774,A
18.148384814837105,-0.9797642257373647,-1.2551742027371622,A
12.657991234624307,-2.440786412846225,0.15478154561703508,A
10.909655190350982,-0.07978182967262924,-1.494393291429894,A
9.929587591696524,0.6382244433011377,-2.2591809497182664,A
10.22997686358886,0.29156411274490573,-2.5769907002542887,A
9.505991579559177,0.8175456537469501,-2.814703947851991,A
9.27177808596123,-1.5490406098266873,-0.002045961901849807,A
11.740745664706543,-1.3057950158279115,1.8563187056383468,A
12.95018507882104,0.49242839990167164,1.0331392992220105,A
12.619485837174103,0.4895163915838276,0.32219449213648693,A
16.516897703053047,-2.8929114416478825,1.3087716067077058,A
13.312933164066983,-7.225033972130253,0.4672464479293039,A
13.079122206042008,-0.036529429651116406,-0.5344621100810024,A
15.135503185841813,-1.411688116672487,1.0981771117581978,A
12.889128104305989,-6.029825662253266,1.061161362748465,A
19.107479908945887,-0.22013916386880794,-1.9507568009526246,A
17.864367809242683,1.8469457021068107,-2.8328499057215697,A
12.218963421487784,0.15529798590310084,-0.1270891814442308,A
8.989168394949072,-0.8788345809766253,0.03778521699775831,A
10.236996137428495,-0.8356735526747562,-1.308702915405311,A
9.689277195275212,0.5787695384807233,-2.2298803575247717,A
10.216739023503958,1.5407278783475487,-2.4947741009135105,A
10.240576665801113,-2.7923037809145557,0.9951349399361518,A
11.895562432783645,-0.6864388188456391,1.5502003687932955,A
12.091307884963731,0.48180766622886984,-0.14164991656493298,A
11.86077708968211,-1.308943025113488,0.6892674008291725,A
14.97097499311617,-3.0402664597158964,-0.5506051575194818,A
13.464879601978204,-5.09095220843674,-1.0157192335853504,A
12.929591760876704,-1.9468269144584731,-0.4962224474554622,A
16.630456822073864,-4.3209018214868165,1.8388963717936997,A
14.34000360440947,-1.8482676686815211,-1.0438856699978623,A
16.227311493209054,1.257121402429647,-1.5018230247886646,A
15.68063545378771,0.5514464427930158,0.5415216660353209,A
9.66343589635453,-0.2177680155922916,0.7638484719618208,A
9.084833974967287,-1.1673890351064997,0.20600371276412402,A
11.34933929051211,-0.4588640886606947,-2.4197504610755995,A
10.327678713584742,0.5983857666869595,-2.8365783794944344,A
9.708036899485899,0.8131306580318688,-2.8715072584103236,A
9.762095228590654,-2.6004709144667144,0.4613964964715268,A
10.852865058512569,-2.1468295458135063,2.177075888174149,A
11.589628158967606,0.055805027422866776,0.24195974395071476,A
9.695729959412379,1.6345914174587506,-0.3748386340162173,A
14.237549490900395,-1.8176882015399451,-0.10606013426407904,A
13.878586170826106,-6.30514877853973,-1.5154105108473446,A
13.26131398516612,-2.4926738162080957,0.11465170945981569,A
16.047394731523248,-3.3016442422243735,1.4157648822582072,A
13.308702223079752,-1.6336445281924672,-0.20687887689867918,A
16.150891059055397,0.07009006071383146,-1.6369148410187613,A
14.271693015542567,0.004668588132835289,-1.4880172765478106,A
10.53570574689563,-0.5292560883838134,0.32360807151758864,A
8.711745203983588,-0.23446044884224027,-0.5358711016269183,A
9.489793729606117,0.5241243653137743,-1.6811687954703154,A
8.982879153327492,0.25850287957271906,-1.8254878133050483,A
10.165373529832763,-0.11748945117811918,-2.4069256840043423,A
10.172324500626397,-1.994120895466345,-0.22339841858506015,A
12.995960717585238,-1.7047766618380884,1.1386381793480544,A
11.358830504798606,-0.444049325534741,-0.2799858330250113,A
10.468367147548065,-0.9312273320523188,0.29165487833285403,A
13.717812954964002,-1.0001222320311494,0.13273777431823247,A
12.731574572735255,-4.327726418335746,1.5403236383827277,A
15.580177503448628,-0.3211997003775494,2.375841985999205,A
14.315106890739479,-0.3947910208950729,1.3852993401086044,A
15.596423002118241,-0.6644545076501258,-1.9981839095921323,A
15.229389981128234,-1.1071073406457446,-2.1717652491128328,A
9.234231094375707,-2.3273883381125837,0.6561997098764409,A
8.261812258033386,-1.8016706633689816,-0.5516960913078514,A
11.371392996290936,0.39318170173826583,-2.7135853019410376,A
11.021173913421164,6.5564603533248365,-4.271484638754501,A
11.732844585354869,1.1421720692057398,-3.4205076591449997,A
11.126804851860422,-4.420443858973812,0.9020415304881729,A
10.872884459954298,-0.9912143004148817,-1.375033540216337,A
11.454485227730808,1.0081537329808652,1.3284825237135132,A
9.713254933553323,1.5675130235658676,0.8721740500899078,A
12.19224875855016,-1.5899845881533436,1.8819118068846206,A
13.782393893641993,-7.315030687861405,-0.4709980324450851,A
11.99924911793021,-2.9626435075721975,-1.6445183662644027,A
16.530924238914874,0.9880705652390689,1.6893686684254814,A
14.470609213570842,-1.988064556587177,0.8909722547829877,A
17.508353381105334,-0.622815418528069,-2.840260387057902,A
16.160955961205257,-0.13555846432865035,-2.8685896197365883,A
9.516242409373358,0.24083111336167337,-0.11419053306569245,A
7.75197704370184,-0.5113224326217821,-0.3154662747887309,A
8.916117232818761,0.1639823513048051,-1.5957868762796896,A
9.502075460518096,-0.1631264457573775,-1.7027925736551308,A
8.626571441102195,1.5022448290608663,-2.0284025603983884,A
9.937157567164954,-2.0428933891454815,-1.036945292617382,A
13.922038209297206,-2.6302283861898914,0.2962226312842025,A
15.526124314498057,-1.6574743392923317,-0.11489120319566407,A
12.867914971100445,-1.0686561558121965,0.2674140977195723,A
11.133635253834846,-1.5651986028784282,0.20439337215967607,A
11.712478119540265,-1.5495956047072073,0.22726654050789794,A
11.814967384254494,-2.5155759084619143,1.5018301360047897,A
16.6003204893407,-5.7954092307983975,2.333678160072219,A
15.184786179975877,-1.3046878677907985,-0.6966626990753242,A
20.102987393030123,3.6764126373916355,-4.425134283676594,A
17.149194749416164,0.44161630100759103,-2.850134496705842,A
10.993573390518575,-2.3231114296323048,0.23120550548632043,A
8.804730218253447,-1.1080703566006431,-1.2801768187592233,A
7.148779110250944,0.047618703116077105,-2.3113409923872412,A
8.289753821800572,0.14331553519324566,-1.3961770679203707,A
7.613248796762218,0.9197756988927259,-1.5523330644483513,A
9.650325370252034,-2.266472344998633,-0.7462773746809767,A
13.775835615517739,-2.7378229613956466,0.8614704812324178,A
15.773231608785139,-2.3218106699389014,0.8697667813688869,A
12.329203730003455,-5.46864908764011,1.4947001193257652,A
10.120543619060646,-2.50968612048369,1.3787816797572279,A
11.207732174815707,-2.9707085699190845,1.0194380929951439,A
12.315845351736268,-4.034492392137619,1.416473981673085,A
14.435321429098785,-4.387868625500652,2.1901920937195434,A
14.002134023512014,-3.3403500713968963,1.8994120099233716,A
16.45169348742615,-2.503145467041991,0.1372095457418607,A
17.159100771860384,-1.0780468040052467,-1.651947408426947,A
12.021671426170785,-0.9570290844609497,-1.2425138361085994,A
8.94967335904532,-0.006880679669081351,-1.103675268803532,A
9.196441609642784,-2.1020571788473674,-0.28206927712647395,A
8.674844983752596,-0.6516018954088065,1.0366456254109835,A
9.21273400252035,-0.7082074057825848,2.7603218658398454,A
8.365439140267604,-0.42577543979417226,3.1264697334875646,A
9.174466200197442,-0.5133280917557731,5.683357254568666,A
9.71798703263303,-1.0991114843912666,7.4418073442170005,A
6.772370318496982,-0.5525233937602456,6.286435193950488,A
5.343521073923706,-0.7822624212782032,5.259914970533005,A
5.33925971823635,-2.180095646247381,5.96463082647976,A
6.186789230090247,-3.2234467281620987,8.16793722655344,A
8.697973618404664,-2.4680717392430225,10.934552964023185,A
10.219580564490379,-1.973638762024191,11.353364960837135,A
11.597277154262976,-2.9595697597035158,10.764535382108162,A
12.461049315573602,-1.6084244080735506,8.195457649751807,A
8.381838901751284,-2.0605822581125106,4.401153921674459,A
5.819240849852533,-0.6530692192316109,2.6264720603459786,A
5.185158572454433,-0.7479409044980401,2.8202210326968093,A
5.804575360071466,-0.581917678887662,3.440568453949905,A
6.927546288738267,-0.862711728719423,4.532861652153824,A
8.554870767513501,-0.016810307091734245,6.115963688426971,A
9.423464189736288,-0.26584772252078265,8.375788818061515,A
11.41022058537886,0.8462204434476572,7.21826843510396,A
7.984574602452175,0.24907395347731787,4.86372143710213,A
5.180726404493065,0.6289256260864801,4.227022276295881,A
4.489787970298745,-0.6423015284326032,4.413414623447454,A
5.508298993758826,-1.1700665110607396,5.928154772106592,A
7.893466060391123,-2.127676050700739,6.6694412882711465,A
11.945796687384297,2.5130456096260994,8.04447964982816,A
15.710574446085824,1.2734939110846186,5.364820900194522,A
15.274549780154963,-6.970981536651774,2.0466195717621787,A
12.592148950945479,-1.2163496908841578,0.40056725157356965,A
7.897534775406779,-0.46845636296485804,-0.6430757855377365,A
6.875428526725262,-2.0119267286189255,-0.7963372621485798,A
9.191877780356092,-1.1794610518685351,-1.8395922650255543,A
10.01844078362403,0.9116343964289513,-2.987137144141558,A
11.189531563135947,0.9870494967163458,-2.8903636538226394,A
11.383933582351364,-3.352162991415991,0.4158605198887328,A
13.480444816393153,0.35723568065448186,-0.060839141698364047,A
9.663945065351314,-1.5063271930915871,0.7886469136586923,A
6.832368458697761,-2.302865037745285,2.1466052782327645,A
8.164739050746439,-0.6542860676486755,0.48464159103050664,A
12.16384605529116,-1.8945668474565718,-0.5014434164469681,A
15.335841975423236,-5.30394584260053,-0.10865551175213375,A
15.175608420573866,-1.9214414004053495,2.2756997961793615,A
13.716390425224626,0.6405872503755708,0.65866104561829,A
17.299516063893446,-0.6110587227560558,-3.761490279608557,A
14.264232718813615,-0.05046191162567257,-2.0736620431786768,A
10.099529917914658,-1.8530557955557403,0.7158185867422362,A
8.600427750729983,-0.18495018318840148,-1.0097732195261269,A
8.860308440840143,0.7370612630238579,-1.8424056585811108,A
8.361550366761,0.6105498627632473,-1.8543944908331367,A
11.559900359669742,-0.3411396414915265,-2.5544514162421517,A
9.356013661995012,-1.756652729668391,-1.3856835591630041,A
12.582761456635922,-2.2298181645530497,1.4441961771711522,A
15.649655829376698,-3.748585608900696,0.0376043167704212,A
11.627349596881928,-0.09763091448998765,-0.39790120497334025,A
11.30380948484189,0.011769650995711787,-0.3206209640096937,A
10.450945012501077,-1.9783770303253174,-0.29226777078190347,A
11.865770411452992,-1.2114655540619537,-2.5344191576292805,A
15.341293618613975,-8.282549635881088,-1.732386321305626,A
14.273118068226038,-2.5059021883392845,0.12146180448810528,A
18.066004108607206,-0.8034804340984807,0.7509168665928447,A
16.32238289600178,5.0314595695219575,-2.41808976243419,A
5.988814823580325,-1.024343560564288,0.5515295282630465,A
7.803417212076846,-1.632495479648032,0.7357860059363417,A
7.305877062795876,1.1047508165670987,-3.292344188274982,A
10.683765395242588,-0.807557301874896,-2.22251235578392,A
8.024203067374645,-0.48307627120018976,-1.3727500964090338,A
10.569123189635356,-0.10619893352729166,-1.2000288166368478,A
12.85521057867488,-1.3588789534206318,0.08901816196069713,A
14.848550237326888,-1.476982963095012,1.4746829350709403,A
11.594321584629379,-1.6548009661814502,1.3302021867962808,A
9.130465701684171,-1.81281882972065,0.9907375321378521,A
10.349512524659678,-0.9036740935216154,1.1650679243913886,A
14.089874084355802,-1.9488345993881642,1.3331285691692214,A
15.87844817514965,-2.652516786920158,1.530449410167964,A
17.726677304879214,-1.0919087015015234,0.12812877959178623,A
18.189333747673903,0.7836991193122668,-3.0259126533710674,A
16.127599676078802,-0.4019590174181666,-2.704447970942251,A
8.776645623190104,-2.3072406342173855,-0.9742853044203547,A
6.286931268751999,-0.8675245930384059,-1.5217746704374717,A
5.442385595942269,-1.568874591219716,-1.8352151267747747,A
8.775320898038846,-0.6947062834497607,-1.9940215168540867,A
8.196929496572297,0.5365528983199704,-2.1080116121568677,A
11.08020796807301,-0.09281007897554444,-2.372300893590582,A
13.995729868489693,-4.736275845900289,2.5569338914410538,A
17.187994416176092,2.363225772599827,-1.0034008328991768,A
11.550744224475572,-0.21880730688558653,-1.970092335324722,A
13.083512583707694,-3.07609644291242,2.6545005003696254,A
13.121016391517063,-9.695864248311167,0.06598322782114188,A
9.936143563260138,-2.6781206171840193,-1.4480142857450933,A
15.749950961757449,-3.9762291835870247,-1.1212239059238749,A
16.091136091842944,3.118758405423721,1.7714356058457676,A
18.22046110701184,-0.4671252334546185,1.228635712860549,A
19.227819621096828,-0.7370296460754193,-3.174087461461767,A
10.3142391758021,-0.16249932613159113,0.09518175006264358,A
7.243666514545023,-2.0031792931952226,2.0701862435900553,A
5.283737813766704,1.5651489203163453,-0.8486263834772663,A
8.24281485393861,-0.7022146713804855,-1.5983028775887487,A
8.550585708234669,0.27131747401210465,-2.073913445386297,A
10.563837747812947,-1.4924245558044662,-1.3128666821599606,A
12.85825697023895,-5.720491972107851,2.2025651240125037,A
18.77291071724879,-0.7471548667866333,-1.192840262282521,A
14.018566551586801,0.6644411864004502,-0.7527769660124157,A
10.017761861613836,-1.4011291041282308,2.091763472907325,A
9.796198137860117,-1.8415875823043901,0.02080657347994415,A
11.390973867373408,-4.361419522514933,0.14169312425699948,A
10.132533021271614,-8.111775597285932,1.7051327434293644,A
15.675182908538313,6.027458944507141,8.652319353695177,A
17.72730600060117,-0.07405926084006732,4.647298429831522,A
18.830350885068352,-2.086226804160593,-0.12090295872363557,A
13.542066079118483,-1.3387726427861943,-0.38110936740980467,A
9.241981167574066,0.6302238689624395,-0.24199155148298,A
8.467970410275205,-0.6379879144353575,-0.505250837649634,A
10.814326970708798,-0.549782089770832,-0.9014719508892064,A
10.075839947444123,-0.4150892384203777,-1.2170365358248405,A
8.766920284256463,1.381642463947868,-0.8143029619560951,A
10.610113859966873,-2.3198463642754823,1.6107274376696226,A
14.15900207247949,-0.5016207256733196,2.0050778760340213,A
14.584626323531976,-1.7437244267466974,0.4695709813753848,A
11.87066810662289,-4.749003855538198,0.974482578128133,A
12.598261402882983,-3.8175572902518953,-0.5879678173980759,A
12.338881844873606,-3.137405359423698,-0.22065119930006058,A
14.482488432950872,-4.533941193112644,-0.13791508365400182,A
18.022771250112573,-6.704433338269637,0.4855422672446059,A
14.720909835347175,0.37658546662622033,-0.9079234895721209,A
18.740779319086517,1.4330107473207228,-1.2324238580564608,A
15.909436815345721,-4.429696601057158,0.5408888215928862,A
11.542195501447992,0.7296081783687294,-2.0805736733205764,A
7.551862320500033,0.8062084431192634,-1.286342941525952,A
8.43419055001026,1.2631148440485402,-0.5944674331077467,A
7.941215894815699,-0.7650503320051185,-1.3865482197044172,A
9.938095804004922,0.9866299514440231,-3.3009680509868815,A
11.683767637899097,-5.805413858405799,3.5150786941606755,A
9.9570971687678,-4.492209535676307,6.119174079466617,A
11.877904706736848,-1.9484997825423762,4.503227470753771,A
10.057978176404585,-4.0498694259521715,6.09465196178867,A
9.82961653896785,-5.514055960115378,3.804805998494005,A
9.849415437349897,-7.1417799538127404,4.769680147137588,A
16.02281093238305,-8.507698169982632,4.831297018341653,A
17.70314981478191,-1.2994241318573745,1.2791691365789875,A
17.24122986706824,0.1713717644597136,-1.7579740715533703,A
11.169550798074331,-3.6232669388955197,-0.013268518971617741,A
7.783602768536333,-2.1282899580438093,-0.9715543267274062,A
6.197018946041235,-1.0156800485542081,-0.9637611803910618,A
7.059141622933351,-0.5225513114457019,-1.3834782562668506,A
9.668794678851468,-1.0901982077787509,-0.4595956491653011,A
10.96579688418837,0.17596899918008654,-1.7200962334970011,A
13.272495596653565,0.22735863793338285,-0.37646047028853596,A
14.391109315590796,-2.6242611875977357,1.1280410379618544,A
14.8040176313916,0.7411727889463768,0.19162232299468807,A
11.824708143648794,-1.8180474054878883,1.6146185594810356,A
9.531567250570976,-6.250390991169214,-1.55579306119646,A
9.65030858794288,-1.3362945808886275,-1.2774839732989676,A
12.897133709658,-6.427606539304171,-0.377001567540728,A
13.11172326810408,-4.088105444604721,-0.04025712719109144,A
16.24045791059957,0.9699230503182016,0.5666289074886328,A
16.480255020906053,-0.3654701730062711,-2.0131009639485984,A
19.846899412820804,-1.8785995750944964,-2.977336900572078,A
13.698445846128838,-0.7201506085248797,-0.5969956637455806,A
7.407168295510079,-0.36818106246266313,0.09149707253811519,A
6.985811327266318,0.4744479515234522,-1.4204629532847868,A
8.463320379989645,-0.4286071810743982,-2.3384166459200704,A
11.192445487689636,-0.9556413078435505,-2.3431450589931693,A
10.26293334007645,0.3874655789806749,-2.1727520118479764,A
11.615388818507686,-0.5566689920348548,1.0747287736541593,A
16.308251968277176,-0.6074600704361183,0.9107316156361325,A
16.220284625801792,-1.1479480109033777,-0.9479980216731363,A
12.811106905931162,-5.30380433888492,1.067792691810464,A
8.985407763313729,-4.382970581153355,-1.1157517607233405,A
10.44336704956439,0.2530860180450682,-1.0066015035214158,A
11.594963655361601,-2.9901308810258076,-2.336586961198639,A
12.594728093020278,-7.8126068057337,-1.4920656490529072,A
12.330794809567804,-3.7416794091537007,0.11704283081217644,A
17.915349837174755,-0.07359811843326086,-0.5382685685067037,A
17.588729680469907,-1.9933814552688311,-2.4578456927687142,A
14.656911959103633,0.2961077957780747,-2.4090605585655007,A
10.932153566044917,1.3114856266416197,0.03884815395472111,A
9.655634310696307,-0.5585054376801105,0.05628337629591771,A
12.294716166262198,-6.0030592293950695,-1.5355943577074394,A
7.756846951026315,5.63070947196121,-3.0521759946871247,A
5.746531739065393,-1.148156066608396,0.4518895555222079,A
10.344230585036286,1.0176389649204705,-0.1365746184179458,A
11.422540434659064,-1.5618522044375645,-0.7169934269121997,A
10.83629616088023,-3.3756471677160578,-0.21654027495243944,A
10.291848972396771,-3.224797743631014,-0.09738865011721086,A
15.25621532619424,-1.9750945979207426,0.42572196637634224,A
12.873176445668257,-2.828247512439052,1.204690372457206,A
15.768174530270509,0.16147873625210263,1.4184527251843813,A
15.058263556647416,-1.990505150296964,0.5065458041989784,A
18.59257046978114,-0.880062022175374,-3.4533676185937687,A
14.674007845557021,1.3712722829553894,-1.1219715800780825,A
6.984038961998195,-0.49042465356383885,0.36199128538678005,A
6.659101598357194,-1.1428219969384794,-0.32853606697042476,A
7.524952928824212,-0.2769943477575391,-1.6803047014327015,A
10.609155001567292,0.208905282592199,-1.9167559522543716,A
10.360132011473732,0.7649478890748758,-3.8478220191267414,A
9.408678992564651,-2.5503176261735216,-1.2127895990201187,A
13.17744073702343,-4.76997230980418,2.2187594046083143,A
13.782728709149783,-1.0616701220301055,2.179897711402029,A
8.879806878226564,2.779504329762335,0.997705520253644,A
9.777738850722777,0.2330879148268372,1.3696814946072642,A
12.007707014612912,-0.802609285389773,0.2819986545889374,A
12.285606792480538,-0.3017916313160516,-0.9079265221816523,A
14.438586552125887,-3.6078974573270615,0.8864806864233519,A
14.040458366015413,-3.147371617157594,-0.6558566029650708,A
14.214269561451411,1.1030615593907098,-3.8346634348760524,A
11.97673699957305,0.8719201998693695,-3.430258721154063,A
7.758116996525239,-0.4765326278802022,-0.06683795833961538,A
7.873308141513343,-2.448740026403731,0.8609298975735433,A
9.770534667727262,-0.9832751798915148,-0.931975724472414,A
13.018174114455954,0.3579630744258939,-2.1096409036698325,A
8.141365092310373,7.475954311540012,-0.9038171082433988,A
10.040344225146416,-1.530487797272202,-0.43218419511973105,A
16.91578734944435,-4.536844347396186,-0.10376344250775996,A
18.13645104996156,-0.4456052212571181,-3.247986388392218,A
7.670561499509393,-0.6601265735320725,-1.652931152240646,A
6.977036225541432,0.4872210323433126,1.6433085728320873,A
8.721083631996423,-1.9564586307536864,-0.2530685824624281,A
10.149589145266914,-5.479430595969769,-0.03936650546373669,A
15.125072862672233,-1.1579851944718145,0.4901779503001379,A
16.37959261282162,2.58036504776339,1.3300316495687818,A
16.734739990226725,-4.1847597036914985,-0.9648680771610298,A
20.82689181040969,0.5824181628463144,-4.328913306930755,A
8.930852851863477,0.22533733329992567,-0.5187286160483187,A
4.155107838826272,0.04126503037932411,0.081595317154472,A
5.172466299044543,-1.3105694634589071,-0.9485678063364585,A
9.95633408976863,-1.8097188488506228,-2.159910763855396,A
11.43203868297203,-0.7765179351902673,-2.4309884208551655,A
11.113781833463968,1.6428221353168266,-2.14051446508712,A
12.291555491433053,-1.8659582430425443,0.7600918420267373,A
14.170129681171838,-1.5174069563817059,1.714230640673131,A
12.755513311333246,-0.20053149246290225,0.4362412369464201,A
8.696396975573208,0.788769998495334,1.191396842698777,A
8.315961157051445,-1.9455166095979355,-1.1810809324174407,A
12.576817156464251,-5.570808644739077,-2.9438526971793326,A
10.953468784441446,-6.392281069605652,-3.6146360495924856,A
16.381720455738925,-3.81762011675214,-0.674981247566548,A
13.87849751293085,1.5145510987760424,-0.16093565983467384,A
15.931885271681374,-0.13565486588693745,-2.3652294460099164,A
17.80086819185123,-3.1638592809932486,-1.6401765986169732,A
9.481116315651109,-1.2810125329398518,0.16872045681200287,A
7.756019061948173,-1.5890919724485908,-0.09687606918992521,A
8.315984851249835,-0.5939199794761274,-1.3092991583850955,A
10.170976404554795,-0.5249292131884226,-2.2461909270505145,A
12.220718973519999,0.3844219216524194,-1.281344591282954,A
10.023958708859148,1.3252616624428974,-0.4457701416692495,A
10.689604068981842,-1.6421746134378503,-0.455491728665802,A
16.453247868293328,-7.322748783262824,-1.3341198339591356,A
10.754541470435317,-3.2967418703859153,1.4537519741684555,A
10.916265762388008,-1.32337497098211,1.4344839488378085,A
9.85402899369481,-4.845051838845347,-1.9481529943833396,A
11.00956977953199,-6.310139911712242,-2.1510121995674716,A
10.582503845809672,-5.614978574966479,-3.137284841754595,A
14.11558825898751,-7.654344928754715,-1.4915954646883625,A
15.060793685315785,-1.0660212378066696,-1.747053226499183,A
17.359294061364547,1.664514707399988,-1.3475474817806248,A
13.865767862690332,-3.761066935920254,0.7520721469029779,A
10.07609573080976,-2.0469681598302074,-0.07659481827296151,A
8.316730150235035,-1.4256336634972493,-1.789919999355069,A
9.186812451966867,1.0620144063123795,-2.588987975261162,A
10.510374974601698,2.04195771135179,-4.4224294383196865,A
10.431817226288313,0.2801275294634324,-2.3014615399121765,A
10.921019530032396,-3.795703294829556,-0.30071523352210505,A
15.714534432657283,-3.2009835957432884,-0.2390846850296675,A
11.738125462806893,-2.851294151564617,-0.4684109985410902,A
9.287171623320875,-0.14796512523513594,0.01829103403687004,A
11.43338583651964,-1.717218018084651,1.0206017119040396,A
12.392618117966506,-3.4381986089329306,1.6257258901765201,A
12.746137798087396,-1.626004637065448,0.3523351871430934,A
16.02357482392831,-0.557521603467736,0.7160343737873729,A
15.990891053594034,-1.5433285717194773,-2.15637740289889,A
19.49842402997155,1.0353725469681563,-4.245490157377904,A
12.444080778203704,-0.845246122564409,-1.2915684543312238,A
7.161536592336088,-1.2444590682911918,-0.2404104751625536,A
6.900715322820641,-0.9162471525094565,-0.9382285422241345,A
7.95897129873528,0.007653984237705382,-1.3981982520738763,A
8.082360899988819,0.5746432183562857,-1.7205671459543588,A
8.977319957879663,0.5162079445929096,-1.7073583281620335,A
10.953008795810025,-5.148128262124398,-0.021117079386621378,A
16.45411876932125,-2.0647957045747405,1.7562328705614378,A
14.598001120789107,-1.5412864535714024,0.3532851714910276,A
8.10971499255098,-2.2450061105936774,0.9269270914427834,A
8.22897105311014,-2.175810506370904,1.3985749760215098,A
8.926924927668177,-3.136603263569826,0.3222642849732138,A
10.799209234744467,-3.7126352952209,-0.23211374378644828,A
16.16374864585092,-4.069284911319557,-0.22238152067254005,A
14.811133041275657,-2.1787010620402487,-0.2541776109628045,A
14.296570612299261,0.9156851981069218,-1.661322187135032,A
13.429298885196383,0.10483328278685417,-2.447584972801292,A
8.514653563461883,-1.4827320321198194,0.018902829157533562,A
6.461083926774055,-2.184481185799946,0.11494503285273404,A
7.075684369658091,-0.658060758969691,-0.9389174409542504,A
8.247174107513196,0.17837250764763013,-1.1218624593304287,A
10.586970252912081,0.004886817958042189,-1.799031247809709,A
12.066762137471786,-2.275841884689386,-1.0877946166007388,A
13.261076381711167,-2.0512386338368884,1.0600418741626156,A
12.79300759032034,0.18841521891356652,-0.71216715581665,A
9.931704804308277,-1.449339406720497,1.0048794967572532,A
8.105839725581232,-2.0699376426321163,0.8839084760665394,A
9.224606975241455,-1.0718020509107558,-0.2768625215149494,A
11.758378598985288,-2.3288922955064777,-0.2621535654044786,A
13.949907581279115,-3.1226558176469577,1.6552944234859461,A
15.891677079922374,-1.1685334983656337,1.8483456622291161,A
17.574492097958213,-1.2179206362673016,-1.6676224434531013,A
17.66325688109297,-2.486397105748645,-2.8538035589960744,A
13.52860539223763,-0.6594060926730941,-2.272379634514779,A
9.354046207018515,0.7089918136705986,-1.8594934641876053,A
7.309547916472974,-1.5460093585471473,-0.4190800902597196,A
6.363108754419427,0.7445213994348912,0.8059583218446967,A
5.919196232934001,-1.166757053164323,4.057745288591193,A
6.496779342939412,0.03949222964266046,5.557267225856586,A
7.420012579807815,-1.0162424995539998,6.447788843061251,A
8.719979348743372,-1.8075116659984503,7.268400827897864,A
7.29336177392666,-1.391756465599748,7.56761913972066,A
4.965423984935521,-0.5664732773329636,6.110376880575102,A
4.4706572725632645,-1.122308498489646,7.005315283341128,A
5.337703218572926,-2.1931893936741362,8.669352563760713,A
7.387276833978534,-2.1392074066604736,11.034018409808802,A
9.422136208152756,-2.7899544704240054,12.649215018187592,A
8.34921222513384,-1.421463977036469,10.716260953770217,A
9.102473255149254,-0.6385252868100126,7.179154086417333,A
7.667330712154424,-1.9356807882375477,3.9482657618310295,A
4.606222631763887,-0.9578535724026951,3.0176620404286734,A
4.676093097829134,-2.261224684709228,2.6363561537412403,A
5.973827497879932,-0.618956121638316,0.5183747409665874,A
11.426412051842178,-0.09974711432489378,-0.10234829533917784,A
13.805276607034765,1.8497133837697861,-2.6705569201213946,A
15.201936250314084,-2.1603796236523034,-0.10306471990401414,A
13.96593345880088,0.7804141892499047,1.3572761525894839,A
10.01611226056201,-0.013655130989908351,-0.5010742508093177,A
6.982418348359599,-2.029505534669225,1.5752274037188017,A
6.303189129941569,-2.0019010641250747,1.4122083964267802,A
7.71188440567329,-1.6169531870633305,1.8960680353237007,A
12.64410816562323,-1.2393708262710978,0.31032390567539836,A
16.796278697694685,-0.06598848620078117,-0.8874119932867608,A
16.007731971353408,0.3423974854864925,-0.4859865245759405,A
14.775492699083452,-1.518973312758719,-1.7720219978953127,A
12.716150957974499,-0.920467362173868,-2.9780309430201095,A
7.983664481629986,-1.6989838610998977,-1.313529699598422,A
5.249822505493686,-1.038780681468564,-0.26655513573300765,A
7.0672483567125814,-0.42209887638987154,-1.028134512252551,A
7.921388382558177,0.3045959462668253,-1.4035536814552156,A
10.148973317747824,0.4726629161057585,-2.1420105077824396,A
10.48517203019604,-1.288641184124649,-1.5816785280459396,A
12.967539713410751,-4.517634136792038,2.3423533073998684,A
15.818666221855413,-0.5560851248836255,2.0276299566674436,A
12.922720686464132,-1.9114567060410605,4.499965099811696,A
8.939836900204517,-4.535302593673892,1.8085520534135278,A
6.944865390196142,-2.404027509626012,-0.7842798515308579,A
9.2420070195188,-2.479654013604773,0.24834870986381774,A
11.479584546995927,-2.996866647156362,0.3083149812426716,A
15.524749670233886,-0.6205719528628605,-0.340224436186292,A
13.88543735067391,-2.3855881038950235,-0.3759577959356948,A
15.163777227225808,-1.763919255919235,-1.6492498095251609,A
10.596624746018477,-0.24759209777582383,-0.4408521522923051,A
7.006773674028621,-0.779923882786656,0.8862572027392382,A
6.0775034940415775,-0.921811595964766,0.27325624722631076,A
6.243173720087276,0.017193766068892898,-0.8761420639730169,A
7.147087544509993,0.6151087566661583,-0.16283821976902674,A
10.930846515052941,-0.3592994727039529,-1.0591215993598617,A
14.459478593659993,-2.278480016563141,-0.5473803132727982,A
16.904275454597254,-4.578968597065834,1.471267669292346,A
12.50851255452539,1.5107791748757853,-0.13112657072953463,A
7.49418894919209,0.7644728685377462,1.1461491813471667,A
5.259831131813449,-1.8881601086964874,1.1557377675560467,A
6.534438290181583,-3.2284740944066925,0.10706837963427862,A
8.377527397324206,-3.086158102778317,-0.0670249648302134,A
14.077520716649758,-2.6983280869492567,-0.7244374857886329,A
14.081944521305903,-1.298449920606724,-0.1902512724722187,A
15.110695071869078,-1.6528729429108453,-0.497834179327203,A
16.93653863794303,-2.292311385543952,-3.290549854373599,A
11.91912617145747,-0.8349004967524132,-1.956470780467485,A
8.346224782443755,-0.8258372552083716,-0.661571589994276,A
5.577429918508009,-1.3146874938183823,-0.15681858574973095,A
7.943681592808637,-1.090988904630151,-1.2202204107765589,A
9.828079721408322,0.3765314843086349,-1.3392669772489068,A
10.662983127896492,0.19435656461293205,-2.645876640351924,A
12.958145420124348,-2.585079932278818,1.2726428369991487,A
14.410028871644744,-2.4345572518170613,0.6832198005964724,A
13.482358590978109,3.8753352446278186,0.5231559046946916,A
9.62814347041706,-3.2824589724446853,0.6817393440495132,A
9.46290781608029,-4.1897323489621305,-1.6096435295428713,A
10.351926258151737,-2.9625966664644148,-0.8071287936924373,A
10.297901884089159,-5.631820126351037,-0.8857280475582245,A
14.044512919882289,-3.5896432323535423,-0.11506078357806436,A
13.953392411008972,-1.1131090164721924,1.0468554923751028,A
18.706858740471276,0.6287971777085494,-2.8945824938787528,A
18.094906409570427,-1.3126175885115428,-3.498955771023421,A
11.5923962408387,-1.2478987059605695,0.6805774808864224,A
9.240857863504722,-0.7469586937851501,-0.41938530162883114,A
11.141152087306754,0.45427641627367116,-1.6304966514648591,A
10.636332870797167,-0.4318061922340207,-2.651916876081691,A
9.046479927776359,1.2247538112884448,-2.4093112046349523,A
6.778946671833312,-2.6836342784744076,-1.1359869067501749,A
9.94203024570206,-4.036118878124987,1.773135522316525,A
13.675703860566685,0.5115812452438318,-0.6596329965477077,A
12.808125576514005,0.30542019314700797,-0.609301722531245,A
9.989478271340706,-3.9822257483060555,-0.27648227872256576,A
11.689777387979511,-3.7747235302387576,0.7681450654211772,A
13.406188482519836,-3.6988372511055347,-0.6934244081454981,A
15.736462130062566,-3.67711086813328,0.8492400821642946,A
14.129330507805925,-2.5503210863452623,3.1230094543290843,A
15.445354915902184,1.5067356270351215,0.3765213533110276,A
19.911291554867905,-2.3876936328882867,-1.8948395174644763,A
13.556999371531212,-0.6260997648962339,1.804742654088607,A
9.976133875532419,-0.5604356908651422,-0.375211277240208,A
9.152421355848569,-1.949876107395429,-2.725421532225604,A
12.278194455508261,-1.1527465185231036,-3.3095111702956275,A
11.233447950287559,0.4935090323730041,-0.7636121149029717,A
8.48180978167151,2.9029085130861194,-1.8573037131133523,A
6.653176251394136,-1.905578108224631,0.5127444024278941,A
9.965837412957896,-3.4071705748114924,1.8036730621248864,A
10.565938311549537,0.16348545650939056,0.864208013771476,A
12.940388578967145,-0.23097693960620425,-0.3197704150622744,A
16.510000549849984,-3.1678573662862646,-0.3275407278722553,A
16.02336683881445,-8.476836654628618,1.808196445971271,A
13.01577869401782,-1.8444047063830498,0.9692098661014807,A
15.979748521143216,0.7075072561688479,1.6591033465155396,A
14.729502330082523,-2.451748490402592,-1.7101334847248848,A
20.225883566960007,0.26585578809084426,-4.57540992656607,A
14.807478071094582,-0.4381450162697787,-1.3434498399741592,A
9.352886947248237,-0.7891549222220458,-0.1919446959311648,A
9.214191449799856,-0.7759902989745489,-2.1522331272549367,A
10.753136493001076,-1.2850335724974886,-3.69580186346775,A
10.128547613859409,-0.10460111773671632,-1.7799394721245614,A
8.09544124597179,0.7559479263753097,-1.9730458862810971,A
7.752516278917482,-2.3883927116031165,0.990793339305152,A
13.15901931854373,-0.29628847587110324,0.4275712914540079,A
14.861590037542584,1.2148422655279585,-1.3478010496658674,A
12.8530735282937,-2.1704897239391445,-0.8852293854819783,A
10.497976041558836,-2.907682573252316,0.5677205587981952,A
10.391504279956415,-2.9821368983398475,1.4909444479900076,A
12.492100480301184,-2.547878499140739,0.35739550150513155,A
16.314119637272807,-1.4080658568848539,0.17516321520483172,A
15.710594726373998,-0.0977797174594945,-0.28009849775696044,A
16.53799478760154,-1.2255486658539738,-2.9276752091713067,A
17.141512418947798,-0.5829838887935517,-3.3493384322117663,A
10.193992610355316,-1.1154418699858408,-0.3905110431984561,A
8.171836492202418,-0.26104795241410694,-1.3143990574661866,A
7.384076568359733,-0.5001880543593744,-1.787214130559394,A
9.283509787542599,-0.2508970411768726,-2.112331057798512,A
9.266297260682563,-0.31028617143556375,-1.8804781365107015,A
10.376637458232457,-0.15304693476208198,-1.2475323802391909,A
12.458305160265532,-1.7070699865362458,0.5290328577255899,A
14.968824579404817,0.10392116703818693,0.07320276967959304,A
12.352410528150802,-0.26702973149206194,0.3478792946410624,A
10.213718512380302,-1.263389356525928,0.5537967330288306,A
12.094672437262075,-2.994705337115715,0.38283455076591366,A
11.73910148191369,-3.6312778823462253,0.3565126990410548,A
13.611483989300403,-3.0156349739340382,0.44483257532530174,A
17.30907700427022,-2.8778601361754887,-0.11138495346211663,A
16.860566237028713,-1.9205915269298437,-1.5703879090006732,A
20.078014218310493,0.5428523332351021,-4.140164165105845,A
14.02827964087685,0.3708316379612157,-1.697706260744084,A
9.676569135291412,0.3373324899851326,-1.3506098832012359,A
8.000157991644869,-0.347237904410288,-2.402286025742023,A
9.168576793874758,-0.2866160338992651,-2.018183708411774,A
8.934293337071116,0.015935404257515797,-2.4248696018733304,A
7.711235363101413,1.2202206978310257,-2.442058684579551,A
9.127015739300033,-0.7815429669158203,-0.5706748897281592,A
14.554706550881917,-1.5554565639256073,0.3367362636875879,A
16.101881321322274,-1.8124277844115217,-0.2181007630271794,A
13.030539949771637,0.902594141810504,0.5681357096889497,A
13.593270914261831,-1.3511001744961462,0.30585523239112994,A
12.76036643873799,-4.894123899455699,0.6226273934156347,A
11.986950810688855,-2.4919903193463133,1.101871167431933,A
14.764759685141492,-2.49201250211587,1.2343160571389584,A
15.08626631182589,-2.3748161398539613,0.31582030242311077,A
19.184918574460035,2.567037938882382,-4.615672668759472,A
19.10113156128956,0.8677565748066682,-4.540600326115993,A
12.096253673997815,-2.321665655738085,-0.3977402861835128,A
8.310026123155286,-1.399410671914288,-1.3824628640379881,A
8.418015463855749,-0.21504014766985158,-2.3591492809735395,A
8.949306004289928,-0.5423379882201357,-2.3805613072085374,A
10.030091490119178,1.3399964772658308,-2.6699056540310218,A
9.907654126349959,-0.3962689993057476,-2.1793087816214403,A
8.977194422359771,-3.0009214157071877,1.854936575508546,A
14.06189376635171,-1.0005266187749324,0.0330772271564951,A
15.469740605048154,-0.8304601891112043,-0.34939366246864717,A
12.584423915611268,-1.7233206719153213,2.0680610342684074,A
11.913685357042633,-2.640450918307424,2.4147434271278594,A
11.691501821761705,-1.842381149376977,0.08607323372173088,A
12.914706775618331,-0.5207971770188101,-0.9735031913959253,A
15.482998451039093,-4.629447324458814,0.25913776256691085,A
14.372412369914995,-1.5687991064869282,0.9657291943862728,A
17.415186943764922,-0.09948803529306434,-2.661815737924977,A
15.101953125722993,-0.027987523642371406,-2.4973350834806274,A
10.596484289147982,-1.5509630847255202,-0.8225317607947858,A
7.826898942287547,0.03781772120927499,-0.44552629913424585,A
7.29204603344829,-0.023615209479735902,-1.022873491440264,A
7.446179508200818,1.195667115097482,-0.8658931066421656,A
9.245256781942054,-0.47169131159556194,-1.8343764124996422,A
10.022760503222147,-1.0184670981855506,-0.7913827398850855,A
16.09996220308258,-3.0362936190372163,-0.4499025076974339,A
16.67807985583041,1.472090703070206,1.0710672171780848,A
11.61643075959126,-3.0370744578970097,3.3599665796917857,A
9.387237640854082,-5.709729019797898,-0.5234309854935223,A
11.374422907670855,0.6441846269346718,-2.074812990668253,A
10.920552426448452,-5.816761228772331,-2.3423601748900853,A
13.37692888708365,-6.302160822571449,-2.679271563248248,A
14.323302279658401,-5.258912725669286,-1.0601852311243702,A
14.244094361600583,-1.7579250255228687,-0.301193204548569,A
18.229482032357097,0.08896419884495875,-4.53211364352257,A
12.660809339271983,-0.4646628591809496,-1.0196454534282555,A
8.478641534423474,-1.226489755202733,0.20702842971752866,A
8.362338975719927,-0.4292805472635284,-2.6270824059565525,A
9.473297499106609,-0.3891944125636956,-3.676695765253024,A
9.68175155103692,1.5140698625222315,-2.594793938136481,A
10.27276571841493,0.23040716567820554,-2.9044932810018365,A
13.696247327463944,-4.386952940809759,1.1340280943170427,A
12.220386209014887,-3.6715592043043452,0.37388336153503526,A
8.641113233560997,4.94206372151109,1.6881220234943601,A
9.560489127592623,0.47699269946756123,1.111113468331715,A
9.824014633084582,-1.9024285307013162,-0.840141193309067,A
12.801857380224995,-3.103743365502925,-1.5349565843964437,A
14.936618463284573,-4.446303235115763,-1.6350101070046084,A
15.881938735582546,-7.519724471597316,-0.8544297222115168,A
12.766582967832738,2.815213511290092,1.2180552376014107,A
11.94410464501618,3.797292189005522,-2.469685117145492,A
12.113273957496329,-5.720803609012388,-2.7147011394888954,A
14.342083666454707,-7.9188996475356035,-1.8240544253365163,A
11.3886206877525,-0.013519989214015702,-1.3274877230482025,A
9.461042071361387,2.685810679261369,0.7514963234237362,A
14.87131556450344,-0.856115392233326,-3.2227144366593943,A
13.05596163614291,-0.5977285402611339,-1.6180564920019245,A
8.679235757249975,0.599620757010737,-0.9494009320582439,A
9.133066338549773,-0.423924336653628,-0.7970795462795871,A
10.937847526081493,-1.5656327833568853,-1.0003333734164463,A
11.146165589727758,-2.1831662231291538,-0.4713664983584434,A
9.840059494307871,-2.499800137733235,-0.19829767173197488,A
12.601391386939612,-1.6532555159603632,-1.13206483306356,A
13.643272287023855,-6.1911472223443855,1.3001732515301005,A
12.634266630346977,-2.616049964289983,0.9979661482358392,A
18.391389913075162,2.067242291106333,0.06572329209578796,A
18.640826657714598,-0.8085090239417636,1.3624722261952777,A
20.7353281789376,0.6887707281942115,-1.152255638924813,A
12.208848121553515,2.269634778393001,0.6183721755686439,A
5.976565823354,1.658870276570616,1.3908206296018257,A
5.635487523713772,-0.31250372153182193,-0.4524289175046626,A
8.226735160506406,-1.1162098020368834,-2.774831333910551,A
8.078780333464989,-0.6970431136583227,-3.2293809305680146,A
8.506029340929873,0.13098716590702716,-2.6302636897436003,A
10.602235773025187,-2.6225851218374596,0.41918870123823204,A
16.107747064343684,-2.3182814993054097,0.9887918975169372,A
15.596480025741052,-0.43246092203250736,1.0194393932449737,A
10.02744303813266,1.8811983211189123,1.1146967800632526,A
11.587799031161158,-1.1342229806261057,0.3684574432309471,A
13.545386817019768,-4.634342059893384,1.526962117465342,A
14.193382240526184,-2.9565989158532524,1.0642930105969322,A
15.8958891798923,-1.0140543510331403,1.4108058107547694,A
15.55690752818701,0.6130497084754752,-2.1521419817183074,A
19.013059131859432,1.8037913664687348,-4.171841066618604,A
18.610616126372122,-1.2580735008180637,-3.951270996895105,A
11.062893537947526,-2.422099382999922,-0.5504576101509306,A
8.755114740129121,-0.7502379821244518,-1.2729448388663724,A
7.385199772400897,0.7908285204103986,-1.755186452911891,A
8.058609436406474,1.4168050056318857,-1.4497562209455914,A
6.280660576006284,1.1333308972800165,-2.0740090341397126,A
9.070494966323542,-2.5829161898663138,-2.019909583390048,A
12.885655545157093,-5.370690027673985,0.5005615018880646,A
18.343371998180313,0.1912281247370821,-0.10792024090488904,A
16.17610666087539,0.680422364890555,-1.1692619040227188,A
11.889841102201123,-1.5725818767229554,0.14588538078374294,A
11.04759392011686,-1.921115879353037,0.861722840903574,A
11.662594790095383,-1.141270926760028,0.5498162353168247,A
13.197680915969247,-5.893825554182567,-0.44397822026033495,A
16.60329840267381,-4.564471148357991,-0.4963602423321679,A
16.69344276154357,0.879870420187655,-1.106813537494557,A
19.94711830271585,2.958160832222679,-3.7974671993998372,A
13.620089302760114,-1.1886729312241568,-1.978455722606668,A
7.990861880437977,-1.7445179450437664,-0.024617422244471367,A
6.572977907677123,-0.5863033864950089,-1.015754473508534,A
7.84310486731518,0.8656595241841839,-1.8196915801800841,A
8.437202406421415,-0.40751564316451905,-1.2890247590593193,A
9.899193868472432,-0.0660918996210321,-2.1773912803215114,A
11.248768508741028,-7.571322260757495,1.491507032524808,A
12.906227835540456,0.3745068773746896,1.071363259557183,A
11.913371856889741,5.156268623460982,1.1947323789333382,A
9.585465116883755,-0.4801610962650686,1.604623479051368,A
10.038926204386252,-5.213225900211458,-2.3031840088910625,A
10.833213955189738,-4.629035890384546,-2.715961585756625,A
12.728219536572684,-5.110662777198364,-0.8808029115588705,A
16.20250755710593,-6.1991323740301,1.5098200149533134,A
14.976686941755359,-1.8025087208089428,0.007670831419095011,A
16.027068863910237,3.3065464402019864,-3.573629599487533,A
17.19022687738242,-1.1582955423108343,-1.5306266823379178,A
12.99460436035998,-3.315449871792796,-0.5741939479785124,A
8.042845157820471,1.8562134258244591,-4.361357638308165,A
8.126631441206019,2.65779516483882,-2.219378531729682,A
8.303671596486437,1.0182881759407933,-1.9863692187183493,A
7.081451506103839,0.9329586729619597,-4.496394287259803,A
9.83462542912171,-1.4810503577427088,-4.045430591116769,A
15.472234060859272,-2.3644599008541602,-0.7232856435952244,A
15.29624198992386,1.9700780687156159,-1.9062242817891002,A
12.943205638850117,2.4113667037021322,1.3532202009422971,A
11.176434317288646,-2.0483507689341116,0.2710322008874005,A
11.48122124793182,-2.4045503359463405,-1.1673844827364748,A
11.090809046442697,-2.2955293989100247,-1.2953105027789253,A
13.205542639259296,-4.585511944280628,0.426039004881289,A
16.531471282995614,-2.209249458874184,1.1168881782449238,A
17.034749985909528,-0.13029618050472494,-0.37148137215648414,A
19.47825014643627,0.33750534174710206,-2.5129871998270072,A
14.58056678871115,3.477353642534273,-0.274029369550615,A
9.759957787786552,0.9452533474406448,0.1840602053007127,A
8.590650865176709,-0.19369603548348538,-1.6895990217803634,A
8.59291866642477,-1.144398039752669,-2.2217228201166668,A
9.340967592804486,1.0292682380353348,-1.9435020439677555,A
9.02739001363627,-0.25352477257703504,-2.2116247434923424,A
12.316820896191967,-1.4891556182670487,0.7020426725444935,A
15.061506477999373,-3.242268730377823,0.16042640233907973,A
15.264787554460867,3.4514523419709784,0.9707449946831747,A
14.538815116865738,-4.427398358830591,8.98554999404446,A
10.890905728854008,-13.83633316230519,0.11299448585118961,A
10.191989313242374,-1.559654545821414,-0.4467959852992398,A
11.968826878377282,-3.209328085889968,-1.014310985501474,A
13.730304110092872,-0.8919026013628332,0.40199489849649583,A
14.42797669099077,-3.3209318709363305,-0.13813286729948407,A
17.488531071627953,0.3801137580126296,-2.990138147136451,A
17.817803780295485,-1.5022664460123656,-1.6738535102492902,A
13.111965049796504,0.15915007512066498,-0.33108206925851247,A
8.50826344912161,-0.6606143692402421,-0.45549819851388434,A
7.49185681950085,0.620974756671377,-0.8664541799271026,A
8.237732046802952,-0.3102944973209668,-1.2109389127320513,A
10.19085080181622,0.6494661996034812,-1.5820511766071725,A
10.343274709144293,-0.5530987405225711,-1.9623427180876725,A
13.577386431471666,-2.461405591501149,0.4242271196499807,A
15.579219443546899,-1.6040721928779362,-0.4942150655155545,A
12.8852808288173,0.26369350837566036,-0.5521577507541846,A
10.520958735141377,-1.001909820511594,0.05296760616560323,A
10.962951458312165,-1.7876891402613777,-0.7369011509014505,A
11.746630248652638,-3.885636455944716,-0.14719165744263094,A
13.301285545683555,-4.083022707900482,-0.3070399390494341,A
15.52148726186857,-2.7259661008101075,0.5620170881850591,A
14.384625421077722,-0.10799418753231105,0.480685197032153,A
18.165607361722163,-0.10054969435663925,-4.0918651455040616,A
16.520843891922336,-1.1646893731850518,-0.35458165930919305,A
9.27893028957873,-0.8654674667702535,0.8710221615167912,A
7.495413835646772,0.06790611341083316,-1.1803730949856779,A
7.77660508165246,-0.5636938142339648,-1.793333884463216,A
9.059276430896356,-0.04729848488976676,-2.142957671767198,A
9.211617391249119,-0.39144495883914066,-1.5895379696488625,A
8.39313389390031,-1.2822790027452333,-0.5490103618333118,A
15.382744711828199,-1.5886924128690056,-0.7548046421822683,A
18.814276376684813,-1.407393106430984,-0.03699386458489914,A
11.834539737974993,-1.9618696608139516,1.8514326902671603,A
8.97552485800351,0.10075658762593068,0.8827177016666479,A
7.786430037473595,-0.6964737119425837,0.6914208149405499,A
11.43526144316202,-2.1493295253465097,0.4634822042294989,A
12.89849267644071,-5.134115586886779,-0.044412751962542976,A
16.223108237150672,-1.7240109744292185,1.148650499477283,A
17.660467740510324,0.45200758151644804,-1.7675565274697254,A
19.37859449196811,0.978459102561431,-3.1439318791911495,A
13.747484186064433,-1.0454314092509123,-1.2269760482303038,A
8.10042663630173,-0.6619438890214724,-0.225825600200098,A
6.3614112753159695,-0.45340122222667756,-0.4791773732811595,A
7.278619119650675,0.7425059563042671,-1.6027410002010218,A
7.144458775007959,-0.08628749847066396,-1.2915389722732726,A
9.222006786504204,0.3429963845758717,-1.990929707027803,A
12.233610094706924,-3.6606880145326404,0.8934684851176149,A
18.433077609963238,-0.3908795634684607,-0.7619170461383991,A
17.464438381681493,1.2508797539062426,0.5807230616103427,A
12.005143353023449,2.3011856945984044,-0.15214844596107832,A
9.878957823589264,-4.451463980453618,-3.508807718710212,A
9.061640552659325,-6.7812511806422835,-4.388555759046111,A
8.681726292612511,-6.797749127503663,-2.7549797001614786,A
10.779164055341653,-3.752413971075791,-0.9270658380056993,A
14.759118736603629,-5.104224614065334,-1.0611983313699944,A
17.328526670646305,-5.4494478427128605,-1.9252159110746423,A
20.358234428343664,0.03202399999566229,-4.091873090947213,A
16.64894023958947,2.127950486240122,-1.978915284212083,A
8.1719069850576,-1.0971506012060568,1.0822553507524089,A
7.758945562436487,-0.42656690622744337,-0.9056817979081956,A
7.264548806162971,-0.19386298987147724,-0.9752647080204411,A
7.41133429877805,1.7547818919316471,-2.3023055415295786,A
6.782219648664466,-1.3848009124821672,1.0228006183828857,A
11.809430005979237,-0.996599572884078,1.3510181165633437,A
18.655722884414864,-0.2618675127222145,-2.2056361162531952,A
18.07486570671228,-3.5182293557270192,6.867881234015839,A
12.648368750107947,-2.6839735691673763,-1.044167689564772,A
8.301087389440836,-4.089965378392671,-0.6702544152574242,A
8.760849227457163,1.2062490640865102,-2.0527126938833624,A
10.523867320435622,-4.696835164010662,-0.28941199202024975,A
12.717702977302281,-6.863158732643787,-1.8760308111475,A
16.186672324299586,-4.52157551733691,0.15480580571844876,A
16.923722120702866,2.1295551307383116,-1.9334685030382355,A
16.336936526837917,-4.437379765704813,1.0761066103984205,A
16.42605079487639,-1.7337435145368627,-2.142658636997177,A
8.341750101490133,3.283105917550379,-0.162597595383923,A
7.225096196059329,1.0810340956189308,-0.12725498875029487,A
8.539018502069599,-0.7990936570516007,-1.4961256258843194,A
9.482210460033242,-1.2252565736079033,-1.5929850365349356,A
10.197049638815614,-0.2594611829603823,-1.4199261255400915,A
11.948827387954701,-1.8178480608521637,0.8356291354884773,A
16.394731640753033,0.20937174615930554,-0.4588023897998042,A
12.563083983658847,-1.562837862228355,0.47398322946320515,A
9.808357844413226,-1.2045376963206873,-0.33329255429310894,A
12.19141775185755,-2.517082474831089,-1.0494622661092452,A
11.776856415440921,-4.686972814570296,0.1997034877567954,A
13.034251677831449,-2.4510510017024743,0.6768006770501809,A
14.350508589809287,-1.1099374254216976,1.1420020325848461,A
14.54623703573901,-3.6935257328246696,-0.24547189979457829,A
20.08444747586846,0.6751017738001087,-3.527694585858413,A
18.472780523549897,-1.7739979687258274,-1.5703526999421302,A
10.314300643131743,0.13470094933031754,0.2936085434152631,A
8.832312686446603,-0.7171851418518524,-0.9908468447261269,A
9.328808347950627,-0.41819977296371524,-1.2724069410920997,A
10.797354381866995,-0.021634784402818893,-2.175956759991282,A
6.676042975899641,1.3617489699016891,-1.9771886303165846,A
9.76122042743539,-1.030428108979586,-0.8803347805961629,A
13.389022630169784,-1.0751472640184543,0.339552349394925,A
15.333946833768778,-4.939305610604689,1.2242115807737957,A
11.362863797964145,-4.293014964268799,1.8458851398257055,A
11.972241236939,-6.272925565008403,1.7990762185842948,A
10.688196493175678,-4.7452944363134355,-2.3677612616793913,A
13.973260544335652,-4.612895876292637,-3.239141691740958,A
13.72134310159845,-5.648063031196925,-0.4222557540484306,A
11.255142410133956,-5.2234269382801495,0.9486951463825055,A
16.4714830397182,-3.242641186535554,-1.8458361587191758,A
15.663758950342839,-0.1326082687439517,-2.938314121656253,A
9.254903731701722,1.8820701373954511,-0.5808428643850596,A
5.231143531385196,-2.1113462520107213,1.3016272832654625,A
10.387138382560037,-1.6572019445305484,-2.0666407387166847,A
11.21100967413027,-0.12930497207666702,-2.5408627389531797,A
10.256949897424136,0.33597976721270295,-1.0882522822380876,A
10.171550079451762,-0.5452725488509744,-0.22700671647379647,A
13.385025721465333,-1.8751370821436923,0.6139408995005745,A
12.671253464765321,-0.8817977733903194,-0.30582773695922333,A
10.170568986183106,-0.5203317388751024,0.6074481232429565,A
9.318649278156606,-1.4156252307146995,-0.1620028992176536,A
10.862405653510312,-2.740416781226602,-0.5489555126333623,A
10.91013154740921,-4.044534250866965,-0.35247821037225635,A
13.671209850214524,-3.8945665073025086,0.10548979779798279,A
15.21641977081304,-3.1562178989031233,-0.05896164976468587,A
15.157949106024041,-0.8901546718000031,-1.038123123044964,A
18.874628604827574,-0.2719105252794325,-2.4492201857719387,A
13.845611768670631,-0.13184392302375209,-1.1309263827938265,A
8.671907320183086,-0.10448934720230088,-0.24395573224235495,A
7.736836993472943,-1.7501634771914376,-1.2607831797028064,A
9.166261434048051,-0.22538356630352366,-2.4713910293323393,A
10.22272585448747,-0.5867998662030226,-1.1527514925697235,A
9.490096779772562,0.03847443025798579,-0.6054453604162197,A
10.847542900544923,0.4236409898217301,-0.21455957102948423,A
12.316506483877507,-0.6417231041413411,-0.8676827082513722,A
14.956204452544917,-2.5406151824542613,0.5027567396341127,A
13.62839834649956,-3.377877435240434,-0.005311233749839901,A
12.821311319889546,-2.0044542059429724,-1.9766697344934976,A
12.323587372525639,-0.03179312772875527,-2.757657629638363,A
12.081102083417766,-0.5972465248044558,-1.9039876070714206,A
12.802016709954538,-4.872452650877177,-1.5992970482613413,A
13.266983487546703,-7.199788186547832,0.40022068069151057,A
15.665370670661654,-2.1980140846136282,-0.8941052351766763,A
16.828337616085484,1.9607100260027601,-3.9269962513710923,A
14.889887661017973,1.6540132359054205,-2.0595560394244026,A
11.214704100715615,-0.927461591219638,0.275535981000162,A
8.707840845831116,-1.3964882839289852,-0.540282400186309,A
9.925634877131847,0.34938092097240653,-2.2253473174168756,A
8.910131904370546,-0.005587527007662961,-1.675086337715602,A
9.316147108142182,0.514786774291276,-2.4964904991572494,A
9.112677574210913,-1.8470368845116258,-0.8386722283901822,A
14.65186327927804,-2.4121701027160327,0.45237378586577287,A
14.802758442282244,0.04936347338605249,-1.0239323706270813,A
11.293538858873818,-1.006104139375055,0.6104961670090366,A
10.98403451608575,-2.395893369015827,0.6978479625131518,A
11.585849574455667,-3.460892793713373,0.30935449870319703,A
11.488147029175211,-3.6834640626251764,0.8116885349608632,A
14.922374156603404,-1.8247463777652428,-0.16859271520222635,A
15.217915401211023,-0.1573621703838607,-0.8709521599413899,A
15.730998070317481,-1.083955231084279,-2.485061038733745,A
17.427387264888406,-1.872910951829589,-1.856424436484587,A
11.310326911392215,-1.3937349549700744,-0.08935888931164622,A
7.757125617529593,0.36152912319496644,-0.37812767365489647,A
7.666626178060176,0.1702517708655562,-0.6888717955419856,A
8.632418581622623,0.13486170586773813,-1.0096670872302056,A
9.508936304101033,-0.8516025595605395,-0.7474406100736469,A
9.418949884425777,-1.2939213783244672,-1.5014105107002427,A
11.019936011070143,-2.2704693447329536,-0.08698999493069542,A
13.901177115568107,-2.7086758125059287,2.4108796040349914,A
11.307360272909234,-1.1277640373283444,1.01142872187861,A
8.487363427719094,0.2423143202650597,-0.669128652575085,A
12.068651567068704,-0.0752655091202602,-2.4522449295624433,A
12.641119243685786,-5.48209009822258,0.49545041387578836,A
9.576423419265696,-4.860774128909771,1.3954516228355516,A
15.741126533285495,-1.5232563520104707,-0.2848392282799574,A
15.326550045794372,-1.4270394556723618,-1.5439356363783432,A
18.394939036460723,0.066841047397228,-2.76955835547842,A
15.277264375996362,0.8545904748966653,-0.822328338322698,A
9.03099174455926,-0.5177293687711487,0.6098890373941682,A
6.60859765501302,-0.46301120053542955,-0.6129068890497164,A
6.661666788498185,0.4901497454792913,-1.057381804327091,A
7.109267247894152,-0.6466752029407064,-1.0770438688876405,A
7.933795374923948,-0.40683252504420564,-2.023239084255896,A
11.650053202118379,-1.4209963053682333,-1.8145641003154633,A
16.251031072161084,-1.1214379481504329,-1.4911248586327859,A
15.458944595155447,0.3357460021495833,0.9494084818834188,A
11.094844802815086,0.05432152798238448,1.1552785842038824,A
8.417805274121964,-0.9134849033981584,0.6237175624028739,A
8.627641992342504,-1.8101253952236638,0.11593048297569862,A
10.005600570053254,-3.3240479139572288,0.5886053185750446,A
13.850205676332473,-4.084571149021273,1.3096082534241942,A
17.449875404251188,-0.7917583199341963,0.009408722821432213,A
15.220576485481837,1.428340395551981,-1.244757496387437,A
16.31615213797914,0.02925358356268956,-2.6483424023068114,A
12.04305219291913,-1.4940330676842963,-1.192370832167361,A
7.456775119840723,-2.0825758547020548,0.03077350337724021,A
5.868964293869019,-0.03696351846586275,-1.5193467845888777,A
6.887072298026149,-0.43679220034049077,-1.5985410635224615,A
8.187222859445468,-0.24417843779406417,-1.900220137514641,A
9.636868472623476,0.12918103674544737,-2.046807157763479,A
12.429065672552127,-1.113215214633085,-1.8232912568438715,A
15.389506348983586,-5.514252745810198,1.6097482759257478,A
15.89039654196551,0.7511913475664527,0.6916895105375396,A
9.673386252619053,5.605238255395495,1.9493458665561825,A
7.655069498096561,-2.076380892708176,0.9215674642259053,A
7.4201230170082715,-3.0624984292607627,-0.07756259475482308,A
9.574986398282793,-3.7186569651703034,-0.7308389385706564,A
10.830527081974294,-3.747184700174885,0.12681515808909327,A
15.197638654314858,-2.3896850763818223,0.02759784802748147,A
15.011397921780059,0.5146342485928453,-0.48100357699667945,A
16.25665628865174,0.10752655497858332,-3.5627057036448506,A
14.455097120318307,-0.4893540260981287,-2.3655394928742557,A
7.942023318712359,-1.1411916116774476,-0.2153014062674696,A
6.565707026020914,-1.5701710117302181,-0.3651165196283428,A
7.419848819203984,-0.5511370470330559,-1.4587987102378932,A
8.899982130056193,0.18101910698926113,-1.119833200052247,A
10.89611559447114,1.1828221965056762,-2.157261895591066,A
11.907366239688292,-1.4838595643662102,-1.2291266421021354,A
13.649218864140849,-4.086749304639257,1.6151242952808749,A
13.641629212253276,0.019086878595504807,-1.1168777358306843,A
10.94989207548965,1.5799502185709675,-2.210022724201985,A
7.557615018533745,0.10682067926359165,-1.1116235859478756,A
9.208760401967238,-3.4892281559263227,-0.4055289814948808,A
9.643236717345722,-2.819985327008423,-1.1338302092655423,A
14.150605702904272,-3.3617810498485734,-1.5024793805922436,A
13.19932905678652,-3.205881772782439,1.0163840598499598,A
14.164823950365587,-2.068919918645277,-0.33289663087133764,A
18.409473404544837,1.0774350063085114,-4.032377594854879,A
14.25487249612946,0.6832691886483696,-1.946256831101707,A
10.991668965842152,-0.5626365431851029,-0.821762430725126,A
8.174970801568428,-0.73031478457424,-0.7627046931979775,A
8.2406556081756,0.7976365259336288,-1.4547153455781343,A
7.435562313802283,-0.19976154420903858,-1.888399621906211,A
8.736568528661499,-0.4823342831458714,-3.244081734389882,A
10.384395866180629,-3.094751186582595,-1.3582615950103933,A
15.26589717565197,-1.7834335497069451,-0.7063865437670015,A
13.184706201544225,-2.192386807880579,-0.6508734107258126,A
9.7168200690593,-1.4228246493295895,0.3223351341998525,A
8.009053596828094,-1.0147435498714796,-0.613214232018052,A
9.96107222183748,-1.4821508491903825,-0.4428589037804761,A
11.860944523634199,-4.292504963179705,1.3392742911926483,A
16.70776578044387,-1.482224807938458,1.3567330807818783,A
13.568200887996808,3.7647639912732958,0.29315213227536446,A
15.39248451001922,-4.358781524801935,-6.755008068363778,A
17.677721364733685,-4.234927264852337,-4.521737133193256,A
8.435077448873841,0.9856494454195692,-3.3238666647288464,A
6.240849349460763,1.0491042172320426,-3.7111750308202724,A
5.541786284561935,0.6300525619729349,-2.746187861013268,A
9.031697441769607,0.16619649364181743,-2.378792248555663,A
9.10640926861418,2.23741609261386,-3.20406758064767,A
12.359962811860036,0.04115080727483704,-3.0713199515779444,A
11.943305644608772,-6.426784232235552,1.0046884969587915,A
14.271091461319285,-0.09970378935472796,-1.573441564824411,A
10.608948706060536,-1.4269896493536278,-0.19674688145023222,A
8.189107658862575,-3.474423619508568,-0.1052039889628788,A
8.608057526381707,-3.7281054609576283,-0.4102304427821703,A
10.29373657892882,-3.3852374810711106,-0.8457315311436665,A
13.190115254197503,-4.4080829299295745,-0.27184467252930955,A
16.937315426452674,-0.5626787462201983,-0.11563967016755516,A
14.058513673748926,1.0937345141815131,-0.3120387375833038,A
16.25613939153221,-0.1956880951647063,-3.1336552457200555,A
14.0565721158874,1.4778262659380628,-0.03498879060751546,A
7.55544539717425,0.7163754702493131,0.5895399531955475,A
5.252863891832444,-2.521766315388374,-1.1883193878726894,A
7.851958502836545,-1.5974533621176803,-2.6557005926714736,A
9.05908799689508,0.6950350777285325,-0.694731569249712,A
10.66801577313294,0.879222727586427,-0.7372190657169202,A
12.946005503054648,-0.06473142514255774,-0.1920249731014046,A
12.748816615731206,-1.9753711603496198,1.0761524593782663,A
13.223703411809083,-1.1310463327781128,0.6457978985261321,A
9.032100893898026,-1.3860717659904098,0.969043182720799,A
7.31661828367985,-1.2783125927597907,0.3982182703887055,A
8.395814274162314,-1.8424530123194192,-0.3008892181747873,A
10.242569437597291,-4.435068378997991,0.8105763378975234,A
12.63041279701738,-4.4523570136716755,2.1320951177063927,A
16.448735472764316,-3.900043325059084,0.1260273195067166,A
13.253493816221363,-1.6884573267011065,0.4819284828032596,A
11.666060252694185,0.27259915441459376,-0.22795249228954698,A
13.539759648014844,-0.044229719491481204,-0.37080552622277774,A
8.40640988741459,2.107524562833078,-0.3887797617623767,A
7.45224165959543,-0.516857064770847,0.8290153938699009,A
7.986937575513526,0.09380240096491588,-0.21250550125300371,A
9.343165555045223,-1.0545225465854486,0.15808324661444217,A
11.17293940780954,1.9498747420848017,1.2788983781221837,A
11.639419329631886,0.4152884924644565,1.9868988949670463,A
10.606363146119117,0.002273544388556675,3.3309531028018338,A
11.895598182946785,-0.5707923878188959,3.6575070715567595,A
9.580636028979855,-0.7709311602119634,4.435484343990507,A
7.095887343709094,-1.1250344052011252,3.747078431241109,A
6.294371053801656,-1.7644091395790278,3.8919035383452165,A
7.116038010476965,-2.5289744463830144,5.423445239902357,A
8.666230483521387,-1.3878273452127399,7.170846936307239,A
11.227364950204267,-0.467818360256291,8.44047558404502,A
10.527017631358035,-0.6110194304013684,7.3613603213917065,A
12.2626931480141,-1.0885774070337662,7.641988327928971,A
10.804935650582998,-2.018543764372176,6.382227444710809,A
7.041114341487942,-0.13412401839919993,3.4941848230651766,A
5.104161500345408,0.5963539043781657,3.0704644408131285,A
5.202639689466691,-0.5392189307774767,3.859107112940917,A
5.456859019875234,0.2802934057111354,4.831179441120855,A
7.448145829138729,-1.0344545697205436,6.914751264455865,A
7.62811800087428,-0.3915623934991142,8.575926153138452,A
7.889467464885917,-0.2941314569346363,7.256589549851402,A
8.168091773251463,0.7311318140895224,8.01755811195915,A
6.906701482242662,0.3056669252970926,5.777530805890665,A
6.1119899003106575,-0.5912609520567818,5.194257260182898,A
5.258821918468985,-1.6809836331316508,6.687924026944143,A
4.976972067123671,-3.370198664839975,7.413505087591729,A
5.282125580350526,-1.7290263969352102,9.559179667716675,A
7.949896228596362,-1.2330014030919612,9.988355418275992,A
8.007070003656978,-0.45740210552628463,9.347907753043435,A
9.324009615909564,-3.18742224375532,8.984110578769956,A
11.326247646627055,-4.852492939962349,6.923073057403577,A
7.25687745023048,-2.78384801992732,5.245325042790143,A
6.25740145778495,-1.3980655905197683,3.262906200474024,A
5.551996576434113,-0.6469018297079346,2.1501944458373745,A
7.228456001353473,-1.0408329201047692,3.278882933114863,A
10.235952636721493,0.6991944748045158,1.2261214964393856,A
12.084393005925836,-0.9118948653004884,0.6366224127056979,A
12.708474085314661,-1.9904069305761185,4.690045339685683,A
14.404919649026937,-1.2130246805488363,2.6872625776669197,A
9.90690096248715,-1.734251370794613,3.100172097739281,A
6.684613777326402,-0.8618608522006096,2.4877072997725627,A
6.5776381161971464,-1.8622470622414486,1.7822844193672127,A
8.92345520752703,-3.3598997522728062,1.0844572957366065,A
12.063663939999714,-3.6685997491204017,5.4938806842300965,A
15.159279211995603,-3.6724750288948487,6.005502273658889,A
12.362926085174607,0.6465947089656037,4.321848526233977,A
12.356855662095018,-0.23386043244976273,5.382055524827852,A
12.159514182687982,-1.3616740261063625,2.9614010804537014,A
9.128978459029456,-1.1101284775881224,1.8809614518940165,A
8.047427962784585,-1.7929646194991826,1.2814117100216034,A
7.955486100312237,-1.4218500042639524,1.7908550383908381,A
9.912546027672732,-0.6583869078645144,1.9418498750898288,A
10.485318630520219,-0.03822059537186817,3.2775457347994847,A
9.674381130494119,-0.7790549313948093,5.2332206146634235,A
9.30796781305927,1.3247450861055978,5.7398414017248705,A
7.699666033140362,0.635548746573898,4.959540932600277,A
4.013466717620516,1.0363519380727972,4.979611339704531,A
2.6044906743767275,1.974305395136927,7.18482641722013,A
5.434345109455522,0.7687288066227381,8.970890720173132,A
6.075946356720411,-0.20207554334517283,9.365168900990366,A
8.80138659011185,1.8092191848014822,10.575092966609688,A
9.994988733920463,1.2521110602570356,10.039350051718678,A
9.312189319273724,1.2053707660835782,8.202069058832752,A
9.33589495957546,1.298798834912689,7.253916318946946,A
6.779696904856088,1.0111703936627083,5.3669687576703415,A
5.453725501773092,0.7063267005321658,4.645011975192859,A
5.753323026577351,0.17522008449526497,4.52350497286707,A
6.6206633227802785,-0.1810819815593899,5.164869523793629,A
9.029425605781192,0.37880361787364847,5.797335605669657,A
9.959662158249657,0.2117476629759676,6.832639163483435,A
8.415616179411478,1.3479338941971473,7.184057832792705,A
9.571143564974744,0.9589233516519093,5.983771585922971,A
7.694351988770357,1.1326285835820138,4.833721288571698,A
5.128889742832012,1.5496203779449162,4.95262883429051,A
3.8821886629606754,0.9170098088498515,5.430782877773936,A
5.271143416745821,-0.09104250978933404,7.9467861487125875,A
7.00552675750953,-0.4715113799033537,9.729517140803214,A
8.161831933774181,1.756918239523881,8.880510695455783,A
8.795588756595967,1.1752894622739356,8.928389056549415,A
9.947341254464213,-0.05487002479942532,8.198140074128377,A
9.267475123368978,-0.05521241091059457,7.6047363277518105,A
7.166384272525611,0.20032656470155003,5.4828275473534696,A
4.947756781897308,0.7244353203658402,4.016384881291322,A
5.2455584144139635,0.2634797601917613,2.8192238898971844,A
7.172311801662736,0.9186029340680402,3.41537672543849,A
10.951148216057293,1.0189559367388519,3.641771530738218,A
11.990609293106743,1.7150847439538741,4.2113961614915665,A
11.967973036042842,1.5921505565914535,5.111450470075905,A
11.489512107500216,2.0892417695413625,4.8915037109076245,A
7.879376587086796,0.5907817948800377,4.014947514902384,A
6.332200869041962,-0.4382960336802431,3.3974006097007527,A
5.679606101171161,-0.30639527395580535,3.686945141842571,A
7.4598808057285,-1.1810274771388702,3.9970181516716483,A
11.584025788011783,0.06897153306187463,6.092626197118857,A
15.137961903830325,0.5278707030274007,5.721658938360346,A
12.672520007913143,0.05960122771063151,4.782065700348485,A
14.700306437935977,-4.121329328514736,2.4915562514430296,A
13.938387922660127,-2.290690896695436,-0.5202521409456214,A
8.661041645159674,-0.17236052716564074,0.3054869285077695,A
7.2411806519344495,-0.6334661206213031,-0.40331240317246186,A
8.881782583986787,-0.9916788793497168,-1.1637621653472585,A
10.283448053154805,0.06626336701553717,-1.6525437521556416,A
10.759306309842708,0.143542889693421,-2.0496656606479005,A
10.092648537026838,-0.9681844454679194,0.5443755278274056,A
12.038467468507218,-0.7074340837877116,2.2400644543468533,A
12.361415602269817,0.6429649626361646,1.1210286738706274,A
8.273468453132574,-2.3608462625255417,2.463798745005339,A
7.579211692807341,-0.8829770068930151,1.479392024936491,A
9.262836703042039,-1.4051043509072487,-0.12635851902169185,A
11.792595887473226,-2.7069752675792373,0.1859827014909771,A
16.220755291455834,-4.30544975621927,1.4641435898218953,A
15.658958546697768,2.709436135649894,2.352680157017202,A
13.880430506974006,-2.763077999290347,-0.35010587436471946,A
14.72606532473207,-4.106267921957632,-0.3313857612706754,A
8.722004747540154,-0.6389489231336745,0.4689471578674986,A
7.39731479877822,0.18244604104255993,-0.005125247136027046,A
7.754832695938082,-1.2238298952932125,-0.7778048147567631,A
11.654041755298413,-0.46881522311031587,-1.6005811880962981,A
10.360548907361135,-0.08190860524163265,-0.44724850625614077,A
11.601490988320819,1.328412591976324,0.8261712870377711,A
10.384204403820961,-0.97959515449457,1.2702749017015011,A
12.846549977770628,-0.13485067936363823,2.3635737677136652,A
10.606521687467172,-0.7174305409083777,0.8837216128566425,A
7.681833351034894,-2.679407324595335,1.2248760408390797,A
9.36005384357051,-3.301898094561599,0.7243066767114923,A
10.364929134910582,-2.5195196816944616,1.139924662310779,A
13.084914642701037,-0.47579976389736445,2.0132176224349556,A
15.180321067018589,-1.3247228365888073,1.5337921194502282,A
14.661567284697302,-4.742528677616863,0.20506646193274483,A
19.269241614160222,-1.2716364714825565,-2.255783368549452,A
17.97394211648807,1.2578340241210506,-2.6476158147446447,A
10.436520125555763,0.9239384070351246,-0.5564959773048413,A
7.162384973297326,-0.42606397720836275,-0.36940316323138755,A
7.484686308330677,-0.7734069250343061,-1.2818871399521363,A
8.18488687230578,-0.12936284788724034,-1.3168804766184676,A
7.31442498745933,0.17785415547522973,-1.9201321754768674,A
10.406511944222501,-2.246046246647058,-0.9026490573438806,A
12.292285572944543,-3.0489533860669806,1.3039706103205269,A
16.428259092583684,-1.0118634155899033,0.29047072356732817,A
13.102824556363553,-2.2181420479482945,0.620358375888947,A
9.785169527617251,-2.2644482011557283,0.9874088290440988,A
9.7478604204656,-2.079339205741613,0.6124529509290966,A
11.302716597226787,-2.020688461175127,0.6584410571314233,A
13.575440731394309,-3.7964220439675147,0.3002583172821932,A
17.22655116766811,-2.9259105690040252,1.2510682760879004,A
14.501175031349732,0.8755335100122195,0.7655578682935507,A
19.07255469531791,1.026223324232989,-3.9312582164961443,A
16.98123701671153,-1.0441343057468861,-2.270036335882636,A
9.321860138263421,-0.5029420702538977,0.5882438978366997,A
7.482661326256542,-0.9548389732731526,-1.319600975809158,A
7.262762130704285,0.012061995134605373,-1.6735820510971753,A
8.429846535528155,0.005498243746705499,-1.7836322253300823,A
8.439662099749944,-0.29112102976652804,-1.8543969222282972,A
11.215344950639809,-1.7971875368886723,-0.17640691563965177,A
15.272933327721214,-0.9353757890290919,0.698553610262565,A
13.999379981902422,1.6370540832099043,0.35790106315162884,A
11.556914283180696,-0.39793160342641226,0.22978755457264288,A
12.008928767632263,-3.198100952984164,-0.15499936628788136,A
12.544823025567508,-2.494783442815913,0.7898675350293178,A
13.068556377392031,-3.784874603748996,1.2649737149250881,A
14.301717075264273,-2.885096003192248,-0.28239039109850167,A
15.755512293812268,-2.9168870108076104,0.6156841300249507,A
15.962584859323435,1.008848688770269,-1.2894146824297779,A
20.396630238343864,0.09302036007999888,-0.49226887561571786,A
15.214703243999438,0.3190396497739468,0.6866222893830907,A
9.378078029625609,1.5858596772661986,-0.3757777552107323,A
7.557767427831535,0.08515786306708932,-0.4861116227531972,A
9.076947302957684,0.0314802733135916,-1.4173947132515865,A
8.814715538143933,0.4684896750288172,-1.8103757538586618,A
10.183346579463436,-0.28180076361095824,-3.3331301707003926,A
11.108710635531352,-3.922116836756216,0.577800182424345,A
12.532972904546028,-1.1727513817232307,1.4094867713751202,A
14.660293697960672,0.8280695282462919,-0.6081407152554456,A
11.781441053502684,0.4149205326059612,1.5894264951969965,A
12.944972151011235,-3.527514602469372,2.2603442211508837,A
11.437792487730619,-3.8743375838326246,0.07801461860234947,A
14.039331083307909,-1.0864314125121994,0.6833911752169444,A
16.449319783682014,-3.7362618533915843,0.5299285186382627,A
16.12635587487443,-0.29566737110790225,-1.2615971445919456,A
18.72762454230901,1.7928185578928386,-3.5955921133828137,A
14.02591327209879,-0.31855563935864883,-2.2338272793850447,A
8.342555236076306,-1.8710878859145468,-0.2779252876887596,A
5.5120418644013265,-0.34857242657287957,-0.9547551785718549,A
6.291740985746998,0.3456812177672958,-1.003626763177265,A
8.969744017964308,-0.03629722658388207,-1.5967924461428196,A
11.068732698478865,0.35035270350999365,-2.7197084965344427,A
12.845112189594131,-0.9021979047494018,-1.3169670021888702,A
14.699239732670287,-2.10942899338275,0.30989419248942374,A
14.719117463998927,1.2751242147739095,-0.6107910968380511,A
14.426645788826784,0.3512835673293612,-0.889208677302076,A
13.164804063288342,-3.3327734633442456,-0.03795018245036217,A
12.919039973255622,-6.433413863469311,1.0881278429832395,A
11.395456378136437,-2.9966905081485353,0.8005418939796197,A
15.901350682009465,-2.666134560470781,0.44053996832271064,A
14.97428293615276,-2.9986766789941335,0.5062716435818903,A
17.55669982597162,2.3272370288257975,-2.394953626336546,A
20.677240622251446,1.5299505379208886,-4.461105859250757,A
16.59248260459243,-0.3334060321586247,-1.2309643635972631,A
9.72528381732979,-0.4452056852865369,-0.864814860784539,A
8.669395984279037,-0.14373383082512858,-2.0803795245532273,A
8.192927959468877,0.7048013976453058,-2.1240931452241525,A
6.981060703143427,0.1950129497198271,-1.8912148275786405,A
7.200802992988392,-0.8848514939761769,-2.0957402799484917,A
10.42592384834299,-3.151150031667637,-0.033265261843285925,A
16.216551194340624,-1.748357534003648,-0.8273913139987683,A
18.80971136004052,-1.409276997929574,-0.93394785058474,A
13.743425324068163,-1.1787639152114877,0.4492690947897594,A
13.175597786434118,-1.1851903234132257,-0.17853863850589352,A
12.51905322847177,-3.2316068352111467,2.0075532186199636,A
14.168898996083692,-4.306635961973764,0.06071228752678612,A
15.177470763611675,-1.82266214452064,0.6003698947686362,A
15.572133015195355,1.5945863293903726,0.44721701508504985,A
19.150869007523962,1.2203029305709998,-4.31359711284455,A
16.80293044844171,0.4803766802846922,-4.182681245631826,A
11.506222937147083,-2.2226637498041106,-1.190418758311871,A
8.609301875593069,-0.6383202196270917,-1.377716486797203,A
7.46537518016812,0.30555204305049743,-1.8110990720513573,A
8.457124600862633,0.6425484124133383,-1.8053995825616818,A
7.6211058471377475,0.667476127914278,-2.071010062489475,A
9.004551435573543,-1.5732664832227037,-1.2498275809115773,A
13.26961411945156,-2.700678375501333,0.4859915788982921,A
16.78181149337521,0.4466392121090317,0.4020053151589691,A
16.588995991430092,0.9471084186240808,0.0560339887276179,A
12.33540799251856,-2.0097926150158574,1.0910148977247374,A
11.759316359092546,-2.4757455516031555,-0.5091604294269817,A
10.233583276755379,-0.4930087977496066,-0.14555213851037904,A
12.328029019962365,-3.1816847634789553,-0.993723550978105,A
14.44411906197348,-5.982541383003724,0.8024449666011096,A
15.098127444194805,-1.9311048469058427,-1.0643138582541585,A
18.99527147656227,3.4209400509763483,-3.840901769194668,A
17.123791614626807,0.6856479747693205,-1.3535961036412232,A
10.965066838609346,-1.6059502407202133,0.5157935419520621,A
8.353039267011473,0.3663279645028358,-0.8196149060476359,A
6.85138518079872,1.8173519131920735,-0.5721068979612394,A
6.454730460507442,0.3918893542489682,-1.3020160089652733,A
8.495881059890074,0.461222199331664,-3.0184295889357955,A
11.608086018506839,-2.8248545188384755,-3.7002533463182297,A
16.579146062697813,-5.19510877102741,0.5488853929911948,A
16.460444469093726,-1.1790454385376494,-2.050172287914781,A
12.353909464313292,-1.3093288651987285,-1.5037983471565644,A
11.037581703546426,-1.8821649345154574,-0.796986421099512,A
11.260150192229872,-0.10369517935376711,1.40453335198145,A
11.5665416199015,2.0463763437665077,3.3609833544640284,A
11.545542517238129,5.06150519101354,1.7661419580071582,A
16.020341455150298,-4.643468764786904,-6.473544043460075,A
16.072898800546795,-6.134040949829314,-0.9283971134876355,A
20.967403691470693,1.0385707744921318,-0.7990007008546199,A
10.548257926818392,-1.517436174345782,-1.5177708366529241,A
8.173884569691538,-2.908703882707523,-2.9176735199578934,A
10.210102817007595,0.5083385478831479,-4.728477536078407,A
9.275690710357644,1.9748251753120654,-2.625943802054943,A
8.768714758791818,0.8106386778436193,-1.4669792716184176,A
6.814991515153659,0.5910586301760448,0.842515877919775,A
10.14608383398624,-1.3189560554160389,-0.6741843014624127,A
14.541168508180512,-2.8449434187939486,1.7198951373220162,A
14.309287326102712,-1.0637777990035302,-1.4197240830689208,A
12.819228832954295,-3.5870060621405218,1.9147276217353308,A
12.043956531169087,-4.256303651786359,3.351378053402175,A
10.492618933970578,-3.5724183097257787,-2.2798296882153015,A
12.529826872001353,0.27353801901115077,-0.30183368688896356,A
15.896192304976688,-4.295282834969447,1.5273157342623136,A
14.266473253716157,-3.290150476664912,0.5649849733891255,A
18.485873818117863,1.1623486523530766,-3.3224896472254195,A
16.635963960075518,0.08663308904581808,-3.426876105738904,A
12.068066458629563,-1.027385497781674,-0.7836783668359327,A
8.534277507129955,-0.3853369979100285,-0.4659096830621516,A
8.017799071912941,0.09624066001141528,-1.1488803037018633,A
8.302143729139825,0.6465861397813674,-1.329885481282477,A
8.17150518765694,0.2381769276062714,-1.8243688680738988,A
9.346727866108495,-0.9379976834901957,-2.377456452824432,A
12.558806017295922,-4.031450649440177,-0.43365878633454513,A
15.601661831794281,-1.7807757937843012,-0.4748329216820931,A
13.558557694507071,-1.6161796742882881,-0.1914086640362009,A
10.42744283010079,-0.576184303441826,-0.28872224979514766,A
10.651149941695394,-1.3307071675529174,-1.283770471248479,A
11.957784220722147,-2.604161125027064,-0.07511144266384806,A
13.431961605215589,-4.920082635174934,0.8504343462611179,A
15.859549793145227,-1.3731919136061232,0.9081976382396064,A
15.33911857909398,-0.7700070221279818,-0.43839555997480845,A
16.470231698490995,0.4611887925106533,-3.283504747114714,A
10.79032809858103,-1.3545027533432534,-0.7406871902222183,A
10.735133194030638,-1.944736947627559,-3.7308462724614126,A
7.623599749301063,-1.234755678119813,-4.130800724325643,A
8.945955416929051,1.1166128660821304,-3.59164916468444,A
8.789969461102572,1.403606684210889,-3.0152635598179547,A
10.863914439055437,3.7876966025380754,-3.809316852687413,A
12.653577257765761,-2.4709664347256184,0.9191760708593869,A
12.966395830906922,-0.34413376583164385,1.183173436096178,A
11.745218811909952,0.4841646229692959,-0.6288244315022076,A
9.238577684584563,-1.7420768177632298,0.5837295071836057,A
9.872302421318995,-2.3984188739104013,-0.5489295822715106,A
9.369388757811102,-2.3857995015049975,-1.2667957162492012,A
11.529827635345425,-3.70484218965752,0.3145642473041824,A
13.901188599355828,-0.4822015339363712,0.5966057156835499,A
15.664354628437145,-3.3355175649240403,0.765929359546543,A
14.35711456547922,-5.192189136672353,-0.48464140942527084,A
19.43061619442565,-2.916008260541996,-4.926900852462323,A
14.705700699832542,2.4683638054215145,-0.4716923959622865,A
8.873165322965917,4.539657427932532,0.6842473660328087,A
6.9303721547423685,-1.7829076876511072,-0.48329560442667,A
7.322067621865333,-1.3020765462903805,-1.116419384880664,A
8.42815249205798,-1.2639097230245868,-1.5027237316416138,A
9.226777032901575,1.0550175570013078,-1.801436264112634,A
10.211669115508256,-2.524549774333219,0.4509128027149424,A
14.239439184032236,-1.8376446443602703,1.0368680862127577,A
16.2554669219402,0.22584386849208996,0.38810003348002153,A
11.007607874042586,1.3616271203920718,-1.170599106959944,A
9.040608528703132,-0.003074673393953585,-0.5472099170189484,A
9.819434486320421,-0.12997666704422203,-2.1013300598849383,A
10.78484042947614,-6.340292241254545,-3.422270350131744,A
