accX,accY,accZ,Activity
8.412560189117178,-4.035577658079832,-6.942229375461378,A
7.246246075327219,-2.2411566251950363,-9.178203320627286,A
7.722163976572111,-2.6605636859991186,-2.6115741097575125,A
8.655636570605296,-3.187707655639584,-0.8249804314821072,A
12.181582837333707,-5.491665907114464,-5.046619382029477,A
11.7042672393749,-4.144794939288975,-3.6277315529109186,A
8.787915846695885,-0.36523275071192096,-2.321468890696142,A
8.519600141190406,5.95421045637223,-1.1494621598387982,A
6.6696960524273425,1.8322075534896511,0.21587748362130002,A
9.939418149130079,-2.0383334444769288,-1.7597122549344748,A
10.847800224965965,-2.642663285140124,-2.5630740669534897,A
11.489427413283558,-2.370495685192499,-1.1334305317712703,A
12.787852949186577,-2.6265818629903457,-1.8659010255799264,A
13.208372989547605,-6.993359303072711,-2.7591717933591853,A
6.1483193672732055,-5.687138258975257,-2.6672125440191445,A
10.232801099272447,-3.5528914291083256,-3.58049715649779,A
12.921428941760436,-2.1373204284435925,-3.616112705750321,A
14.058409527226377,-0.9391487602665612,-3.303417540056484,A
11.278335384212303,1.2724486228757217,-2.4985414646232247,A
11.992414235263961,-0.8470626857169448,-1.0140008658769084,A
12.801460382499195,4.288224023150842,-0.8833064237285813,A
15.981186996567367,1.6345019757579007,-0.22556499646945558,A
7.557447349470477,-2.7012978382594914,3.137602532027024,A
12.147752666369229,3.568273775179407,3.330297449930179,A
9.252745714267073,-3.298237896355153,0.19392011710333149,A
13.09469202599193,-4.252470900375323,-2.0126359705415413,A
12.374014660619434,-3.0947609874671236,-2.2449110751607666,A
10.121265445724099,-1.9677604188627007,-2.181101129708216,A
11.52829566900326,-5.147171365906863,-3.6629693828946976,A
12.365974429957308,-6.317147034739311,-3.3993125254568057,A
9.998625582531243,-4.960437389686717,-3.6767690144741656,A
12.53880696458592,-2.6871716640790138,-3.344086188537134,A
11.131492788448563,-0.2631337035000871,-1.5440294948167843,A
15.129812568612474,-0.590821406473945,-2.514567268070471,A
11.718424811968804,1.6869233028230441,-1.3585956198590858,A
11.449420512724608,2.3476008751220756,-0.8284875441357592,A
11.751056693396976,2.183193409289649,0.639890917868428,A
13.350435380511735,2.8220678917014506,1.395258454379223,A
11.977431163351586,-0.8435188815477199,4.038260460529472,A
11.148380765502719,2.538500384315996,3.287260870087973,A
12.314156395617426,-2.5818457647692794,0.6687924919376839,A
15.30781600836259,-4.004568515278717,-2.05646980692456,A
10.23144086026744,-4.961175217099135,-2.443041183017617,A
9.98344515074248,-3.8118066423853407,-2.09792548620812,A
11.133483244170623,-6.097278032683862,-3.684790706573183,A
10.908610727745625,-4.291360419876263,-3.3154422983569174,A
12.824825020796208,-3.753507160453054,-3.336507288498041,A
13.48402188878897,-1.5958006393449564,-3.2225342821381977,A
12.816472004419055,-0.649413121804411,-1.7015617469060746,A
13.266388053268384,1.0143113877677574,-1.0015217376323458,A
12.165479748453082,2.158281626052479,-0.7354975921980933,A
11.964122435803864,1.0358473542855815,0.8355065351224236,A
14.499040136402796,1.7612521359499425,0.9299390588463539,A
12.12168493651661,1.9168195641447705,3.242328124907458,A
14.365683628741804,3.6940294981773962,3.262502466498897,A
14.017251454143302,-0.10168843616303097,1.2228069541956157,A
15.254969376790177,-3.1867027354881867,-1.0313066086942884,A
14.26370780599401,-4.059739593729891,-2.5083529774094875,A
9.245882079423689,-5.6353293101724775,-2.672756874889661,A
9.228955035978712,-5.327444566861689,-4.110207073591866,A
11.153791343641323,-7.507765642400171,-5.022262792533494,A
12.9917496914434,-5.471839879671706,-4.600911248218365,A
16.203756811052163,-2.575394031199309,-4.569856652967538,A
17.045028256301382,0.5467061335537892,-2.620192221481663,A
17.197230326943846,-0.6596099793522554,-2.673851628960692,A
15.022593374534175,1.4967256683328813,-0.7707434250479567,A
11.803342900047445,2.098477251003062,1.2980373446514306,A
9.74062589922376,2.7435164629591204,4.28154882703469,A
13.74801275088352,2.8426463304938197,3.948684330354643,A
16.066638181984498,0.8628156962045456,1.779976367855591,A
16.634738199122626,-0.4888164427643474,-0.25326251259949717,A
16.36926592111349,-1.3023279959799132,-2.67908225906933,A
18.336744434796707,-4.226703246862301,-4.2374024337441645,A
14.881270888320904,-5.905385567706865,-4.538701895232927,A
9.10087376188357,-7.370357230772223,-4.476909923159982,A
8.438828126716128,-7.172778359001424,-6.250315775033784,A
9.59228223551604,-6.550064138012447,-5.179420638295306,A
14.319427026059069,-4.563925031107732,-4.419603970792043,A
17.976991145021504,-2.8332997263478874,-4.678828963208722,A
19.367418029582097,0.5183056548511609,-3.5357943590441656,A
19.270515715961825,-0.0470694794270527,-3.2978494787150625,A
14.762676992731505,2.890019973874067,-0.9561917565779391,A
9.796510736901235,2.1895795322984286,1.1322093231358068,A
8.784604838788754,2.2180432601659597,2.9252053149432804,A
14.749308923368659,3.185192314344658,2.9918822704202364,A
16.76772204310134,0.7548526345452343,1.3769803517225474,A
17.742743766210097,-0.7490293385733147,-0.829530698919766,A
18.67632113265917,-3.0143525904573187,-3.2218307131726514,A
19.219253558337897,-5.657325905797692,-4.626781477751121,A
12.978264432775132,-6.508313497941636,-4.447947225505266,A
7.618164611621454,-5.29434627472275,-2.690832301884659,A
11.705228119164712,-6.613141098387098,-5.670855444721626,A
9.862656744883338,-6.31367764094649,-4.378716583893502,A
14.35500078462591,-4.029894179163489,-3.983338653993541,A
15.500899436785362,-2.8166531390152896,-3.9624722058549198,A
17.05509838711274,0.3422382498189934,-3.0044686302744457,A
15.28127901944902,-0.022847864494818293,-2.2942958950324757,A
13.208781116743028,2.8231563597306923,-1.4531785072226384,A
10.114492873882394,2.292398326597124,-0.0007229789359186828,A
12.477358822611542,2.117505746483257,1.168570884494568,A
12.096568271082917,0.5952862326050539,4.09433167130804,A
16.22206000754058,3.3863587633205756,2.175071678298817,A
16.737546041712005,-0.3658589208875591,-0.18989842722261732,A
15.584113506132962,-4.113861179866921,-1.9916112438793276,A
15.522412712665497,-4.465990431746997,-3.9250823877203422,A
12.117640261405258,-3.4562191878244506,-3.904928721675116,A
8.750167620720875,-4.116810924592168,-3.59300435261171,A
10.931049611160102,-4.854047786331983,-4.897460104073581,A
9.563457318520852,-6.026222023753662,-4.074644136868467,A
11.777779066416393,-4.864987309530588,-3.641987247768288,A
14.438229130942299,-3.8044563459835534,-4.286091689566065,A
16.744568649392782,-0.023116865009449192,-3.4607098622304813,A
17.464616493016038,1.6697834793688473,-2.9630870047495828,A
13.69782059512263,1.8197414681655786,-2.2001136958546783,A
9.678011670302306,1.1169011589537177,-1.149310289305029,A
11.750787458164757,4.344734643357107,-0.08925992870361414,A
13.549864504418418,2.045644600376657,0.8309309325239009,A
11.913680666873582,-0.9185083377622951,4.0149165884700055,A
15.789613001699909,2.443479292001832,3.268040818022091,A
13.960478694345362,-2.7817750801149534,2.365458588672318,A
17.301143327736828,-3.361508967356573,-1.358337297407831,A
13.902978577582067,-5.9937702260578725,-3.8252146266419227,A
9.274717926845842,-4.65029119252833,-2.8621660829193347,A
8.971977901668138,-5.434100208819794,-3.6928699756733754,A
11.344241516784923,-6.268684178917451,-5.082198556858188,A
11.188910490307022,-4.593741555335117,-3.5083056111726365,A
14.568702745284552,-3.73451945860586,-4.146601320199166,A
15.881737053989887,-1.0005918975980752,-3.074239531539121,A
16.067620573436574,0.01376465664349891,-2.362105368653112,A
14.157727625793594,0.9005955961864481,-2.0276254533113565,A
11.432471596510851,1.6401925540864253,-0.7458288676078765,A
9.873321539484344,2.9115660946538986,0.37194073706013236,A
12.20032890545474,2.0005176567407057,0.914222955757498,A
11.352810681999259,-0.00852728849349786,3.5489760452712606,A
16.394219386715026,1.3599323827816903,3.1055199946841077,A
15.602295808381886,-1.5869383367333578,1.1351994786135755,A
15.963979890736608,-2.9128412882746453,-1.5472328377940698,A
15.203856092245129,-3.2673477927983234,-3.506325074848647,A
10.868930661469458,-3.8684775928665225,-4.233562675021425,A
8.69681317733039,-3.321185726370015,-4.572415674422023,A
9.742596879367698,-4.52583025117244,-6.341495527374297,A
10.187610204346399,-6.2116713146038025,-5.087460013942092,A
12.462899718492956,-4.511142367455472,-4.673876750738083,A
16.1550157403478,-2.8850396079974545,-4.910252800110826,A
17.63626356808481,0.4173062058013737,-3.4668939709497177,A
17.49164682314094,0.453528647132298,-3.127483487987815,A
13.328275518979405,1.5522312421845492,-2.792145885416156,A
10.166991093061467,1.9456483284247865,-1.9317123185353509,A
10.209507844107826,2.391882333948345,-0.8548633163280085,A
13.288795049431737,1.4270471657557906,-0.11895965556803531,A
9.770636668234687,-0.9119356184874123,2.0966427703628754,A
14.764675736091379,-0.8636159519897627,3.1664687219574748,A
13.874244354073168,-3.447173286551921,1.3397429270321393,A
17.299769664071835,-4.475414661975941,-2.394373725724546,A
13.302551905358145,-5.592366890731117,-4.014463455735135,A
9.547725951493602,-3.495050940009078,-3.4323860139724123,A
9.367108414404239,-2.447875954675356,-3.1440115050802007,A
12.76269147708201,-4.104357431473837,-5.125755786147594,A
8.448487710506827,-5.705796875278816,-3.673987791942196,A
12.514052739687516,-4.0532702326998375,-4.084496021739429,A
12.60805228262754,-3.703579345214151,-3.4125702123543604,A
15.692366247573181,0.6824642884630554,-2.9772660310146715,A
13.424832064825466,1.0567559175303751,-1.7309045176182507,A
12.03396689210319,0.3940015932099573,-1.958859754292923,A
8.634533444039713,0.38789446301162983,-1.2992253195574666,A
12.97282940455706,2.394235668412699,-1.735000125456549,A
12.099372919794817,0.0053579195958922965,-0.6179817513147577,A
11.556924853402943,-1.4143408536882818,2.2054411291398,A
12.503355688958873,-0.23612192721126196,2.9886053884403188,A
11.014267745153548,-1.9446548077068926,1.8456774837799337,A
14.33440565528482,-1.128381665708401,-0.8131051974168292,A
12.699671076251773,-2.6341306579654726,-3.258646794640682,A
10.401766463405439,-2.5444208617465316,-3.3791973217750444,A
10.834747337067885,-3.331091249220345,-4.119718111355579,A
10.676023068267881,-5.3770073758272225,-4.384583481473394,A
8.673930770157906,-6.1854806457070195,-3.540049197334555,A
12.72621228417445,-4.777869021739383,-4.031503934146057,A
14.130057180447183,-2.0950526606492064,-3.1765102246789203,A
16.560002787966667,0.28025543951087756,-2.2716578111719006,A
14.202413042648788,0.8725507623119092,-2.281375137884179,A
12.256612457883554,0.4711028294886553,-1.6779586271840952,A
9.587671458568417,0.5096288953589275,-0.4314777617146132,A
10.91876329496587,1.6670222924673106,0.2493785286688557,A
11.616735158284154,-0.06783858584448166,0.3933689227713256,A
12.36050292803256,0.43641934245631336,0.983796707931431,A
13.492657458182467,0.2013869132303105,0.566282579493743,A
13.397641709953515,-1.1059092679993794,-0.8139916117479118,A
15.601062839085666,-3.9940972862280915,-2.795092239657518,A
11.93255834842436,-4.137790108857389,-3.018615943405974,A
9.145119459212708,-4.749634512207108,-1.7837399993244265,A
12.119617896764796,-4.054008638062404,-3.2484931184434105,A
10.968100115254733,-5.562896814438595,-3.440078627841384,A
9.627337842427346,-3.8769240548206247,-2.865319843833688,A
14.86386203952511,-4.015237138255057,-3.6772875032540373,A
13.168241511607704,-1.648529172373551,-2.8942392471169365,A
15.495543587281825,0.20157720880064145,-3.2098746048717772,A
11.086537314711164,1.5477079077543203,-1.9482962311860998,A
11.526351177491948,0.4848297321293861,-2.1105466270277735,A
9.195514159824002,1.6588084118561954,-0.883450210962202,A
13.641956764828361,1.7399187862866028,-1.4268588768122161,A
9.607415211700616,-2.318127866274227,0.5513613336867029,A
13.403510830923926,-0.7663156777937696,1.1000637792175536,A
10.447134183753992,-1.7361750013768014,1.2749380884829125,A
12.71225430192606,-1.1389951388575736,0.3919338043921165,A
12.525339906252109,-3.1475812774404277,-1.847848370719467,A
10.700205554069262,-2.468106071092119,-2.428809973302221,A
9.179649249980995,-3.341725066037409,-2.853474546636876,A
13.868715981000815,-4.563605053558795,-3.883788907573845,A
9.287027268565934,-5.783722787239314,-3.322208658637252,A
11.983722368611053,-4.176795232011805,-3.4606070103862807,A
12.995857568300986,-3.0000650830360973,-3.1264440485600553,A
13.192359972195238,-0.7017119887587563,-2.6366868903108176,A
12.84287861998929,0.012410423305864997,-2.243947682320176,A
12.85350061264797,0.5037972866614785,-1.9681535469807916,A
8.70458644077576,1.5217406570443373,-0.9409893033357923,A
13.440509585378138,2.2736259045274614,-1.059084293316315,A
10.838565364653407,0.3623447387956723,-0.39173235904102205,A
12.098330487875332,-1.7670320808310311,1.4628047635520194,A
13.131821796862724,-0.1898053755990598,0.9683720607033668,A
9.984445331480481,-1.7749895099037987,0.29737866703626104,A
12.0976979788849,-3.822885527027529,-1.9807365043357599,A
11.900954655111407,-3.1088015611482276,-3.4870074927396395,A
9.391371037039434,-3.780705414511836,-2.925003304408244,A
13.681338629798597,-4.077914301301196,-3.6914348584602847,A
9.541524908745764,-5.127627588651341,-3.1652849558326177,A
10.675191587272062,-4.173367250661169,-3.1451490489279306,A
13.09937033075453,-3.3416467918197137,-2.9973613172628486,A
12.363253056283876,-1.330751164814035,-2.532326564037697,A
12.637790346740081,0.6287394372111226,-1.9035150151501856,A
11.716253291378854,0.47341557157099384,-1.778498490978828,A
10.38830815868746,1.2968268434430912,-1.1706149041792089,A
11.04419163473501,1.1724230848885957,-0.5366342080407245,A
12.611095931502403,1.1150394372968289,-0.7049669354614125,A
11.914359385808524,-3.7546381619074745,0.5578735833155518,A
10.930452242491596,0.3349295088999161,1.886757230125878,A
12.138266428827116,-6.085212381628825,-4.490282488429218,A
9.739188786270166,-5.463740936823314,-1.7145837642631494,A
11.40293131083858,-1.8296870473350988,-3.001537678202542,A
9.960234595076273,-2.9038490131219175,-3.236300593145368,A
11.971635527690394,-3.218477471211328,-3.2119896519048265,A
12.018842862169008,-6.467897875529416,-3.20412971237031,A
10.353210583426602,-3.5094734621435975,-2.8627587953057945,A
11.848467885102952,-4.410595601842095,-2.9669382765018635,A
10.998573282722012,-0.08023231196479137,-1.9471638749776499,A
11.829930919872073,-0.08502159197607267,-1.6154732783945094,A
11.417447544921941,0.7763455958962063,-1.7832500307294878,A
10.537882275202003,1.0707970679865184,-1.4670795787574273,A
13.25486633786121,1.7199548321592373,-0.07082779559873677,A
13.02008428106084,0.2555975922830379,0.1536877664007136,A
10.701778506755167,-3.911897858677856,1.8016735480868198,A
10.816108368773842,0.6566064498364748,0.8471868266841451,A
7.942423192320201,-1.3449511677714383,-0.2655412666408731,A
10.684428310998486,-4.273969468458785,-3.3640188037461507,A
11.936942170290859,-2.8137968970547225,-3.0420396342190466,A
9.616935266896325,-4.404317041897796,-2.741754558162571,A
13.73521043058185,-3.727565226333821,-2.61765704156168,A
10.489396963930286,-5.577586747487457,-2.676778589805767,A
9.96404975195251,-4.338870981013318,-2.3339844844463737,A
10.885192614836352,-4.401496208959102,-2.605562895180097,A
11.02039722396552,-1.555472224235415,-0.9312746727124714,A
11.543458345757308,1.8205060531926793,-0.6471976937893243,A
10.859192323462336,-0.36311435812534915,-2.005472910746647,A
9.80364403176121,-0.4639361024986664,-1.244761154449678,A
11.20479425731244,2.6633520957695858,-1.195372995102684,A
12.722603712702705,-1.0338231042989812,-0.41891551713814257,A
9.70942222985631,-1.9841488781004981,1.826279188186499,A
12.804352763431819,0.6403934884132668,1.3149865080828438,A
7.676239391035718,-2.301912929883272,0.36385198922923145,A
10.481137921569928,-4.408472449330541,-1.6604421409406773,A
11.752720135224324,-3.731877490734284,-1.6832869966623045,A
8.769890055197896,-4.613459277050673,-1.2806459706638587,A
12.60681706401902,-3.4481059206983167,-2.664574138905404,A
12.940946598014449,-5.808957286361396,-3.126721752717243,A
9.481957205904422,-2.958470419950651,-2.128931564434518,A
12.845998896341834,-4.230399778538245,-2.7925026437287115,A
10.573638008549693,-0.6682753952890009,-2.085848867197789,A
12.465809163459449,-1.0084588346173533,-1.8804434986470975,A
11.021239661263067,1.776584606062602,-1.575490548137963,A
8.801692584913066,0.3230860311738424,-1.2938880429756756,A
11.285177787526566,1.3761614649320704,-0.052214358338181756,A
11.829745377933774,-0.4926952499295047,0.8416987669111594,A
12.575291513347434,0.19709211753168365,1.7314329158972996,A
15.560668828229312,0.27538892770834605,1.7066510876572312,A
10.252441011196497,-4.9106246996784915,0.5754011073579633,A
13.055753192019093,-3.550908836492995,-1.5288927237865113,A
11.449803675776753,-5.676726527504246,-3.334348219113196,A
7.7392443074390025,-4.073159090931699,-2.929227661892649,A
11.229105367702962,-3.712761281408532,-4.931690301066956,A
11.287261694235132,-5.588336149303432,-4.620139021780487,A
10.406067615596891,-3.2867644756738064,-3.6264587965451853,A
15.103369646912576,-3.860937854946563,-3.935130687900662,A
13.214188941382346,-1.191389417067963,-3.471913380903795,A
14.969893880528378,-0.29993000678347553,-2.528196347358383,A
12.73392761123284,1.7841729925394625,-1.6878490328430173,A
11.593256805098951,0.4424682785110062,-1.721943691616826,A
12.031339770547678,3.575847564629955,-0.5982248322127449,A
10.32144926907604,0.5623054422725302,1.33034392470149,A
12.008503473247076,-0.8639935038529718,2.9882137813544785,A
14.011420207720176,1.0089515796029356,1.7900595936976205,A
12.83212148596886,-3.833032828105257,0.8727244124604463,A
15.232371375308716,-4.15657186649251,-1.7298909586887663,A
12.327396764245782,-5.511164636382578,-3.1120447364372414,A
9.970457512669299,-3.73163931419199,-3.247956353141006,A
11.702713768120335,-4.720634344902467,-3.971343951070899,A
10.075495895649217,-5.336280591904584,-3.8310674698825498,A
9.910284598443262,-4.3601751598379686,-3.0886393879552614,A
13.484107704581312,-2.970150656876473,-3.8421245570000204,A
11.89675600698101,-0.8238679050184196,-2.344257296344385,A
13.071182253405482,-0.7106559005467995,-1.9425916168368125,A
11.944233213700668,0.3685772539811648,-1.7547972248378307,A
11.45129506253539,0.6475819919407573,-1.2749079960065426,A
11.40514476732805,2.3120925663509375,-0.35416589519114894,A
12.350546069351928,0.6398076694621719,0.8026529057303421,A
12.138920299606276,-0.2134211960132241,2.5419726298431065,A
12.758803743597989,0.3850520480660198,1.8198246017796345,A
11.346450457280987,-3.374970417044837,0.7548880339715491,A
13.093074815663163,-3.166234449866133,-1.6979810078659572,A
11.517778700839898,-5.133313390571537,-3.066315387828158,A
9.37986096130529,-4.41217607011895,-2.183918843580982,A
10.760092776278066,-4.576304701761487,-3.4343539680289727,A
10.247142631708027,-4.917949909071858,-3.3404142096859837,A
11.091112491824914,-3.5885509579010826,-2.8776563562689956,A
12.82862803227103,-2.1674379060866253,-3.2489904140095596,A
10.732225100223213,-0.6033426361673413,-1.3099768256286144,A
11.312829707791588,-0.3880049772375281,-1.0992306148275144,A
11.54721633209982,1.58208997289955,-0.4227065428108575,A
11.29726914444301,1.420351691623342,-0.6710510943180489,A
12.525522328900223,2.775606084284945,0.3515715310649545,A
11.475879845249283,-0.015895738421956268,1.192093342822131,A
10.954305757902087,-0.23660277403487393,2.2661619066939442,A
12.695643479753246,-0.6972097459941196,1.4985232408421967,A
8.330836165249236,-3.4512994970839013,0.5248832389652012,A
11.360627240579934,-2.145934769894585,-0.9951297936901689,A
11.074154414200486,-2.4103775279305246,-1.5804536986485223,A
10.109293711479268,-2.879834693527927,-1.969674581964003,A
10.780453965796669,-4.345415081887099,-2.5798853847446503,A
12.618109849999025,-5.536172785840867,-2.5351914837389073,A
9.320069328546875,-5.062666743917916,-2.1333658216053992,A
13.05536932098276,-3.527956818886408,-2.843373895855141,A
10.630571682223037,-0.4901270886543111,-1.3975562987055614,A
11.269705725258813,-0.6225307025096393,-1.0167564484018652,A
10.353586048790296,0.06677211278878119,-1.0154136502009277,A
11.83279742319572,0.9332648186932008,-1.322990606589843,A
10.589414324833053,1.771499696194694,0.43624616668370675,A
14.91081247810201,1.3055858921190426,0.211496597512107,A
12.097607740183319,-0.5347833898409073,2.051925945089247,A
12.421763278289049,0.3521652508856638,1.778393706617688,A
9.197148463769073,-1.6312979467078244,1.0753600730289021,A
12.40320454843524,-4.153288370475925,-0.5796278926504795,A
11.479958994608426,-3.7068368346012797,-2.0871493261277165,A
10.148524757552572,-3.9530944376055657,-2.2224184426896243,A
10.88953396322607,-4.17453739099779,-3.437396410581785,A
10.482325193787162,-5.509735301349683,-3.381516063723726,A
11.2490139509095,-3.4113914799020475,-2.9590078768708703,A
12.864811656719795,-2.569194612007283,-3.023058375072055,A
11.30336353090249,-1.3052522736321939,-1.9477409574948976,A
11.560878382610301,-0.3329997822395293,-1.3792846049566745,A
11.175969134587161,0.3128414159199533,-1.3286295865508606,A
11.696137005894988,0.8414523176870167,-0.5119938088235473,A
11.33379757340131,1.644303559747882,0.6575533186510071,A
12.791495579409597,1.3438184257700112,0.37996171029053727,A
12.610682810008925,-1.2598436157643802,1.250322053658404,A
12.747029447890823,0.6179687189181237,1.1950003315644606,A
9.525827349657437,-3.393410799216475,0.3037606377180407,A
11.761225725402443,-3.1899102119625895,-1.0842229130925405,A
10.559054346800757,-4.714248411494826,-2.206986019130281,A
9.836631791154462,-3.9159098506007117,-2.3982939594823187,A
13.128700748728365,-5.340149014744795,-3.5345875548358934,A
11.2376595068751,-6.02798590174764,-3.3192932460682916,A
10.72381291601301,-4.182777072339342,-2.597772255182549,A
13.96262878435656,-1.9622245277431611,-3.502393527675487,A
12.354406284988803,-0.4134769231813822,-2.1861473526751443,A
12.37555318208746,0.3431319278686668,-1.9132920198669277,A
11.657657835444901,0.8572021323287476,-1.2194780796888187,A
12.996642589874549,2.013551736437179,0.0152420692487072,A
11.683215533360308,2.4255595942329404,1.9159767032286354,A
11.519794918062214,1.68927315431383,2.3600151963088227,A
12.696815067030174,0.9867427469513601,2.057869881584195,A
14.247668052933076,0.8282198869544238,0.3567875886527145,A
13.079148074076356,-2.5276182556794224,-1.628340921179832,A
14.359312810306777,-3.5106782567960724,-2.813545000166181,A
12.739014026485139,-4.535185127766808,-3.0699589609679636,A
11.091638013745351,-5.257669613142757,-3.5872440670080645,A
11.55556867610332,-6.642157037346153,-4.353918773719279,A
9.449798009071596,-5.054165740813871,-3.37222983424636,A
11.538884347417982,-3.685369707486183,-3.1355839530176324,A
13.123860610158472,-2.5009474513840786,-3.391334071638646,A
13.961951223983533,-0.7852498018773598,-2.641348967379921,A
14.678780903778957,0.25072071696304393,-2.7428669884087538,A
11.8764947341265,1.1815515780828332,-0.9896880717863507,A
11.113012742996078,1.5779664074116533,-0.2010232353545035,A
11.60778613768906,2.573772751957614,1.0252491077457886,A
11.604174263455388,2.0777541018949712,1.9765240671454227,A
12.033489368574482,-0.3450914035115718,2.393529503336922,A
13.833654242449157,0.4636156342962707,1.8579091419807305,A
11.272133215261183,-2.464743964980292,0.14257311780486445,A
14.398429984124688,-4.035783879861469,-0.9206875659729178,A
11.66913074706558,-4.951281807452518,-2.343879986882154,A
9.792675086681045,-4.899333799838957,-2.3830259074735545,A
10.386891119129583,-4.99220260932774,-3.327360155600684,A
10.958358690232346,-5.035513510556354,-3.4720696358897953,A
11.656841641266807,-3.670051730519511,-3.811586332629515,A
13.433060441490133,-2.250052503833411,-3.634913451281113,A
12.05483679342984,-0.9510029539389394,-1.9640388072595916,A
12.960813724362522,-0.6153077651974974,-1.7936053871577669,A
12.07099350241284,1.2789640537779183,-0.47648447685014556,A
12.261241694694734,2.855883272553336,-0.9426746723364638,A
12.734634370320677,0.7536666349950217,0.7725820739751743,A
12.278768397741743,0.3174500290433235,1.0839285073854716,A
11.21446402873606,-1.9253857040669082,2.0726457889315655,A
11.416713616301402,-0.5448657868992332,1.524421693918103,A
10.242965880066844,-2.0876236825239967,0.3086773720861467,A
12.429344741178056,-3.4060239047845684,-1.6435068339700623,A
10.97120420328226,-3.3380969693832325,-2.8101985182700773,A
10.458254951689398,-3.6612535195296867,-2.852151654729899,A
12.892684671861499,-5.301840061320385,-3.544405330816049,A
11.179915408082746,-5.058203219159751,-3.4175522404835723,A
11.932754500930201,-3.6970531108304714,-3.333459760942235,A
11.375000231646101,-1.7486449621173663,-2.668293184765144,A
10.519843563571385,-0.7081303229813358,-1.1399091008374662,A
12.25308262783549,-0.7033062815402065,-1.3813097915819463,A
11.47876759524351,1.3427418432718965,-1.4491994759919486,A
11.778923805637774,1.81127778528294,-0.7334820487899879,A
14.32062996877156,0.7786917018234456,0.06540263576232982,A
11.353847657485595,0.46532553703511825,1.313389253922434,A
12.950126165493506,0.15043416973922444,1.8364832069132675,A
10.635354968111066,-0.8773800111952211,1.0716031748906167,A
10.055846065629016,-4.001757457565254,-0.2872308476189644,A
12.360896588841738,-3.0163944468098673,-1.4709908373973493,A
10.233164628772261,-4.242567806376018,-2.0099710289883626,A
10.36849017735527,-3.375248415125978,-2.870097307024864,A
12.754698605253962,-5.855028478672963,-3.611603657121842,A
10.943662812037044,-3.7234326935670103,-3.608093376638791,A
13.237788442531922,-3.073231290062485,-3.1328955024965226,A
11.389320165646074,-1.3888348700260604,-2.383996215643929,A
12.132519180237855,-0.17068420405474813,-1.0720765290625294,A
11.232333814708381,1.4079583866284582,-1.038858517435764,A
11.864097585271427,0.7393441651858751,-1.0967894223123829,A
10.640180505455287,1.5153866077151446,0.36029757706086396,A
14.004845664356372,2.2084002445011466,0.23493856062986004,A
14.062987910028365,-0.49237475336052544,1.2465702891246575,A
12.472688458020084,0.0806034988846971,1.9970225932268257,A
9.997870663829561,-1.6400930592050276,0.7496774256909964,A
11.082188843317907,-4.168416830035569,-0.39975658804202713,A
12.581048297420432,-4.356176905544252,-1.8690971497192759,A
9.961738389038283,-4.149885230645276,-1.9649900523946977,A
11.052930540103187,-4.354009084619242,-3.3340918889091955,A
10.407685467177785,-5.393037746870447,-3.420239453532335,A
12.208965008276326,-4.709398873153991,-3.5867008699170557,A
13.763993482519417,-2.611716076659955,-3.7468540170498623,A
13.385108680118785,-1.0340754304866746,-2.438955656031842,A
12.943382130594385,-0.07696833943181858,-1.4463467050243144,A
13.468600737569425,0.02143842998373603,-1.0403919015304097,A
10.743401442734703,1.944187364595865,0.571823217166185,A
12.267211237107675,1.7901314719894348,1.0981249528367234,A
12.931830344550919,1.73103599819875,1.7380537262908267,A
14.206109612910597,0.27381326241547504,1.1015263985370258,A
12.924772627116239,-1.4879159559367068,0.7101882812879607,A
11.207415371144867,-2.696731369294992,-0.5468755720893096,A
12.970217526306179,-3.361383526690206,-1.9529956021515027,A
12.76791935290367,-4.861340049788644,-2.7371113592964784,A
10.61683884456989,-4.603107739135473,-3.1751436555290415,A
10.709525962146015,-5.205582835753038,-3.5719139896506773,A
10.885757883376275,-5.932658656862565,-3.2843307735465475,A
12.533607751432678,-3.833508290642211,-3.8807047626930222,A
12.710749518523722,-2.148150593329428,-3.129067275690158,A
13.080993717595748,-0.4547869888966733,-2.054243566696669,A
13.348825399520324,0.13152613938379118,-1.412998179742385,A
12.8466239733199,1.2543193910518773,-1.237816874477381,A
10.700972043829756,1.967431842380417,-0.08699518039373537,A
12.20779403257322,1.8130899120768071,0.9036479879074631,A
13.84023518759433,0.7874711543944387,1.3059036897560365,A
14.446695901401679,-0.05364196949262857,2.458214315597267,A
11.843653920982163,-1.525820305434607,0.39218141556735053,A
11.637311925016059,-4.797518257743878,-0.33266303420735577,A
14.096475540306388,-4.411546238758707,-2.11390136853304,A
11.376597004952414,-3.877284206577244,-2.7098139108074415,A
11.773001736659001,-3.414819138889957,-3.454554085480196,A
10.067825868584539,-6.007517809541332,-3.5042951021503486,A
10.351937632119034,-4.47202789782574,-3.183189123157789,A
12.050684187198737,-2.0648362299477454,-3.1070846888736554,A
11.581199964819481,-1.8644379820911186,-1.7720629721368657,A
11.730337761695111,-0.617525232781105,-1.7658866067039272,A
13.216638045256316,0.42569497299767184,-1.6414091356240463,A
11.468475677910858,2.1498010203545364,-1.000451330860787,A
13.904774318315159,2.014272185246034,-0.3686608565129938,A
11.9463371636484,0.003041075768388895,1.80614488046639,A
12.357372768068084,0.058102268104429054,1.6985024317354842,A
11.663170227140181,-1.4489779186453844,1.28832167108731,A
9.027718531994438,-2.3785180167797577,1.3332807612350785,A
9.981017441797567,-3.1861981945474205,-0.7536787448536341,A
12.315934093463081,-4.114033541981995,-2.6082076961755085,A
10.482963599271992,-2.206085440705623,-2.7209616789994584,A
14.068355586419758,-4.957761042600977,-3.009660743261443,A
10.897406539626623,-5.4989121784592525,-2.960276300455537,A
10.629872206449727,-4.741135257979792,-2.676227855397,A
11.458051120069827,-1.5576455769322253,-2.3107837535615134,A
9.422636448507273,-2.458033266707525,-1.0439209236554554,A
11.517935089676083,-0.2387245243899812,-1.3758692856388897,A
11.469370967101364,0.6303362248032957,-2.4142839343917797,A
11.260797700130224,0.48069394376029256,-1.1141793388639887,A
14.596375947759826,2.3510631557713504,-0.7463752209922713,A
12.671882638764144,0.4842952657121968,0.1382456198003951,A
12.478887245097836,-0.024062576722849352,2.254464810089617,A
11.074276375268987,-0.863147012946918,2.148092553434321,A
7.45822989102151,-4.013798057665513,2.249956691709748,A
11.554870032824402,-3.2424029018039198,-0.029615571095165077,A
10.82212468919137,-2.42850297588472,-0.6569241215460374,A
10.934130365481417,-1.713625527378758,-2.0090246123346414,A
12.732831877816071,-4.457013683229115,-2.8368629662051807,A
11.063807047008083,-4.90747741273632,-2.7131228467866335,A
11.419668176625441,-2.892536216098576,-2.9814801552555656,A
11.057473582480037,-2.812577914578481,-2.357297446282148,A
8.763811811749639,-1.1294023313346766,-1.2654083674399415,A
11.20746545877517,-0.30534637638352924,-0.9009243284828419,A
11.052011529235903,1.3079702292897226,-1.291712278457011,A
11.064317287147846,0.16608994382687242,-0.6838380351188723,A
14.455853854542426,1.380059444844771,-0.5770530474886834,A
13.003980441197548,-0.06330424267506635,0.35532206530715865,A
12.296935714792928,-0.6999807587477145,2.1007584144652247,A
10.45547275981931,-0.32281488955244453,1.6510262502527364,A
7.675012919623077,-3.0899155521253943,1.1955420402495427,A
12.398087073945192,-3.416737258151282,-0.9652000805434218,A
10.183292704535875,-3.7137476440915,-1.526364808308892,A
10.93646183198212,-2.9463304699552153,-2.525184917012667,A
10.939916035634832,-4.899768476648883,-3.2192647945019557,A
12.039819531124994,-5.332044690745269,-3.286777048631008,A
11.330868575967715,-3.0336647244937915,-3.5872054820847237,A
12.863017926979202,-1.6805817570823187,-2.561832915132266,A
9.467939310761205,-0.9401660412485038,-1.057089358642563,A
12.741381734613148,-1.298134661217095,-1.1463520600046562,A
10.506937684601471,1.5978319614493206,-0.17272566929974462,A
12.127706953099011,0.05285635994031955,0.3238085784356105,A
11.259407577456777,1.5311171036915177,1.1657115846086064,A
14.340031529883223,0.021439961815384607,-0.06797656404707038,A
12.939870551917602,-1.845803149246216,0.6472946144249345,A
10.375873396288817,-1.1888529825826102,0.5864019100170954,A
9.778594983530862,-3.0513759020640885,-0.46692577506041827,A
12.524018733785208,-3.9610594958473753,-2.105232776907184,A
9.279558072331723,-4.56448666687541,-2.087165271905518,A
11.364588739125239,-3.498350427926942,-2.7089318877421866,A
10.848835671063302,-4.348728349720324,-3.675500775488349,A
12.92292868802987,-4.254407033569545,-3.1919723973119094,A
11.612099241349975,-2.222494290317834,-2.97137299564274,A
10.848646813771532,-2.0795452376849592,-1.694462141521486,A
10.265774904499338,-0.280585874373483,-0.8184383599657914,A
12.757455600156717,0.6000246544432298,-1.1271591820533131,A
9.746132268227415,1.152134049135542,-0.4921954920400222,A
13.14024994701482,1.3303547385773251,-0.0878420078143739,A
15.66335578243204,0.6768025510855353,0.1839775295777148,A
12.498591261237019,-0.41986966648501267,2.1993300538402893,A
11.658205062884976,-0.4565040056044398,2.0394004099365297,A
8.482427120275975,-2.415101369214037,0.7835151011014944,A
11.234567658726046,-3.7533456029194774,-0.9863272156447381,A
12.319198022164422,-4.696941899716138,-2.272319721319426,A
9.285778764189839,-4.2099705038326,-2.437415219339829,A
11.979069320388708,-4.157313471957134,-3.6675746905672435,A
11.482053479603028,-5.557809602838267,-3.6529391378630613,A
10.144938705314592,-3.3005225431897034,-3.272026045225545,A
12.921026558194836,-3.3558082330280867,-3.459445945795925,A
11.35604631542697,-0.26447675601153603,-2.0929682558460487,A
12.951476509845588,-0.901669920837845,-0.9832761813134688,A
11.040666037832777,1.6427746143406803,-0.398500651324833,A
11.520574048833137,0.23450617090958403,0.657479515804293,A
11.841642477073853,1.6294378274676469,1.4991088186877657,A
13.73470919103037,0.5921036981701405,0.7109042006650217,A
13.695670693709781,-0.4215680934610647,0.7897249417465809,A
11.192942457333986,-0.6098844613576971,0.8249776331093884,A
9.416715038470107,-3.117463572333082,-0.4494031904251739,A
12.952864100772532,-3.489707262502009,-2.0581288996222207,A
11.46029053020481,-5.383974270421273,-2.833146805079718,A
11.336184161537583,-4.668333959208225,-3.6384751033811904,A
12.146786156054402,-5.78284799485024,-3.4026286800046157,A
10.724815240991566,-3.296530789739645,-3.5600860301762682,A
12.66360145120871,-2.2847292356398,-2.7099693621629695,A
10.316825623056863,-2.1182685729156314,-2.1093164574031964,A
11.076874884134645,-1.2053857927664204,-1.7136884997898658,A
11.183138002409994,0.5907458590467949,-1.3797105582324214,A
11.705193008472365,1.0043838929331101,-0.7842845148503905,A
11.964676292996149,2.3675310999760497,-0.5102859055446269,A
13.42460918530159,-0.840939407277324,0.5165198996955628,A
11.470549559594275,-0.038924060689047565,1.7859039292322603,A
14.002304195731732,1.4827387209140692,1.215907882898775,A
8.065556528420332,-2.922451657221569,1.267258691273279,A
10.937923104701397,-2.1047973080564835,-0.4711538227661387,A
12.189018606195527,-4.612528254684575,-2.028922694703649,A
10.899880870472588,-4.924029656213228,-2.7571427314177233,A
10.837648156444871,-4.448542740146444,-3.3670828142178553,A
11.81164400264182,-5.178606637476234,-3.6211240212864406,A
11.635493069803925,-2.9935460753311647,-3.697053095787619,A
13.071021905178263,-2.750619190789528,-3.3556067762192576,A
10.859131300458149,-1.3048204893359512,-2.0477440945373617,A
11.935204725878508,-0.5933659369880313,-1.036499925781146,A
12.15050667517772,0.22684795057987958,-0.15601221416710245,A
11.643017210442064,1.718786313884911,0.39367745229673684,A
11.202937462991663,0.05823097713937626,2.1728365734704607,A
13.71194344503426,1.845938636349939,0.8349959003768714,A
14.311851385141976,-0.04102401715070809,0.02599535647576536,A
12.386632856177117,-1.1965451841669028,-0.4606763821635267,A
9.383273144015076,-2.7866774107125836,-0.9857693032586207,A
12.569719534070376,-3.842266086315646,-1.9183372937383818,A
10.876378781316602,-4.773030122995379,-2.222133864798437,A
9.958103615594718,-4.860106000846281,-2.918211569371082,A
12.03064102481488,-5.62155039346397,-3.51600689548022,A
12.440965316245222,-4.5089333404209135,-4.302349703619472,A
13.68424405635023,-2.3154977492569637,-4.20237322240055,A
12.630666598721215,-1.116517447010667,-2.897776021235541,A
12.024453879116825,-0.7963556259692175,-1.738013094124945,A
12.906451994316944,0.12018205869177084,-0.9823179403990888,A
12.391405720939316,1.9273769528931024,-0.4792565002393807,A
10.971593092971112,1.5823918685948122,1.5776833850779952,A
13.332714851323978,2.7756690042330674,0.6292288960296474,A
15.58407423158907,0.551549439440859,-0.13496214928859296,A
12.800998441511979,-1.1154116380100685,0.8500845332812782,A
10.279995391875572,-1.564274316965018,-0.973403268806773,A
11.282267690488354,-3.8681982552695184,-1.5523107893196555,A
13.216549390729979,-4.430547322758838,-2.7790618731812122,A
10.386812989457818,-5.949267359122499,-3.115934062138343,A
11.89715139009123,-4.916022377091037,-3.6643556423523815,A
11.66276994648528,-5.51789523958216,-3.432799285876972,A
13.908697960595754,-2.9201836596795396,-3.596487662504967,A
12.499355957678304,-2.442731150130946,-2.806003255309085,A
11.901070097448848,-1.0323499923393638,-1.6636347061341055,A
11.891065045446526,0.04580116563868796,-0.8730660786107564,A
12.919811020001944,1.1320530459371243,-1.1695192599447992,A
10.513139221439875,2.08690900579573,0.9584014978698457,A
13.75075247266618,2.720192477202449,1.2157928207878517,A
14.914255018503946,-0.4551308456241785,1.1059160269119235,A
14.29443526800058,-0.01337798500890446,0.954095558435847,A
11.407937457131927,-3.3335753889953956,-0.4750936170381018,A
11.2696909113272,-3.284149909532348,-1.2200628706731236,A
13.561366512067371,-5.627943940851119,-2.899092063355975,A
9.687068289170194,-5.933978719624845,-3.477914241828358,A
11.199694136942833,-4.95203982336221,-3.372304255767017,A
11.463300726242531,-5.2018665781568005,-3.452560756384968,A
12.997046641468138,-2.7904324811403716,-3.646549684761936,A
13.062266045101545,-1.8754768074055188,-2.956701462611553,A
10.984736992779018,-1.2522026471157963,-1.9119359049535642,A
11.370554842726284,-0.10045805675128716,-0.9639791404475853,A
12.553471969049271,0.5499847037619924,-1.3961345661573938,A
11.283405053924131,0.9943536126305743,0.5109826432241715,A
13.444202278484857,2.8195402135689873,1.293408377557899,A
16.09936145955393,1.6861624476164647,-0.10809468064934932,A
12.983511662901888,-1.6288911816453016,1.6937616796667425,A
11.17826145842543,0.21855292370581192,-0.8564962734652362,A
10.14607170109531,-4.122318175814103,-1.3882392287628673,A
12.650378258018277,-4.240585214109577,-2.198609450282848,A
9.168133707076677,-4.763029255883837,-2.143935382440902,A
12.335084157567438,-3.859285569408035,-3.0325411398885675,A
10.624493783083983,-5.039001306199125,-3.321411777420797,A
11.555488856909202,-4.196564072545193,-3.361597998199086,A
13.34055830470234,-2.3210311476091783,-3.65866305154017,A
11.674824692437474,-0.32793344154039356,-1.8572325032967545,A
11.221316299582215,-1.2947242645735966,-1.095319347556988,A
12.831522664613875,0.7557378944934013,-1.0553912057463588,A
11.169958353464784,1.4259542972843953,-0.15781221944243384,A
14.179272635848378,2.7517321362361264,-0.2533475247008714,A
13.326068104140536,0.9007796027106304,0.4731307104234367,A
13.424181681275057,0.11380586320394993,1.918213414582477,A
11.767935680340848,0.3301714519961831,0.45498438814033254,A
9.297281673018853,-4.123094770392276,-0.13189635201532882,A
12.07445672146197,-2.7487768059853157,-1.4086720300470403,A
11.024141048396176,-4.3418627561359004,-2.1122519817837535,A
11.469147923962609,-3.1714958663572723,-2.8946026298913425,A
11.434744506235509,-4.618993627331381,-3.516533183394876,A
9.630517930945327,-5.119681854770007,-3.1246069147969866,A
12.553199624060516,-3.3291148594569275,-3.2595717258512296,A
11.724314728741465,-1.7049439986006392,-2.922688377101035,A
10.295895891042353,-1.4310678036412234,-1.3107790927171015,A
11.506733527217492,-0.4727314716107096,-1.314610438656781,A
11.772379732908458,0.8748291047882196,-1.0535228224683932,A
12.754547706949115,2.2166639409389792,-0.8724769903632488,A
11.729002689956829,0.37215939066856646,0.6070280398074348,A
13.458634805064127,1.2310045676792787,0.4952058893495265,A
13.020734200921956,-1.114336969873386,1.038347361298939,A
8.741894690866479,-0.5982128042246517,1.0494751833223221,A
9.533254964559072,-2.5677692733042425,-0.1709731534924745,A
12.325258098070876,-3.9647958159875323,-2.0543464022551854,A
10.544227172136791,-3.955946785454988,-2.6213940720451325,A
11.230324774100398,-3.3510990075880267,-2.8566512423593298,A
11.88314919703323,-5.102073372677427,-3.0763856816095982,A
12.174191670085099,-3.700514237531698,-3.9606219478596323,A
12.360312119194955,-2.039128717298367,-3.316924907551574,A
9.831632768981773,-1.6858560765662407,-1.797249015773546,A
11.486140708399818,-0.66203026420625,-0.9713663834705288,A
12.1487019364216,0.4059786887072009,-0.7031687375016258,A
11.717357625129317,2.440293075547497,-0.7532036382007063,A
13.258050145799107,0.8148569510587809,-0.15102731048026388,A
13.470140877328431,1.1159146428144222,-0.23223315390366084,A
12.494113591150215,-0.4824103477752909,1.5227596239830752,A
9.800183860457283,0.27899762834527975,1.7948660893573147,A
7.370218589630465,-2.6927850657992622,1.0681600184405395,A
11.46890397270114,-3.025476992292903,-0.6231058286434996,A
11.08085375473062,-3.8903655867312588,-2.0624768766044466,A
11.06236998291428,-3.4758244165144365,-2.3241145726373262,A
13.697445921220387,-4.292960201129568,-2.788736625575185,A
10.5613356540472,-5.23471925183824,-3.396783264562717,A
13.15664098170428,-3.3168888590253993,-3.9211639400400102,A
10.342762205630782,-0.49510049381490984,-2.1385962439059183,A
10.435504442756175,-0.9969446787833363,-0.7077767387297607,A
11.697362281648742,-0.217503600505895,-0.9102651295076034,A
11.903113262056578,1.692985627282207,-0.669455758796316,A
11.309923789286186,1.4379112318160683,1.0604371771269756,A
14.446029357761896,2.3204311696876796,0.13619432449436358,A
15.429091605104285,0.03185853234396286,0.7168336727349436,A
11.593462832505756,-0.33631563980416035,1.45089388959222,A
9.650493832514897,-1.5370344215009517,-0.4334612562776278,A
12.242696919864454,-4.666843714076762,-1.5515878498416606,A
11.116824381193187,-4.248591262675535,-3.1838884839001773,A
8.615981904220885,-4.35145988248024,-2.705153514071677,A
12.745013382395761,-4.090823530122886,-3.3377664805984026,A
11.167390535637033,-5.629439441601686,-3.2758664265260515,A
14.947514591440335,-1.697909817278503,-4.353996439501889,A
11.486801235173555,-1.173427317470891,-2.0137945444360947,A
11.692712161507783,-0.9446614193418081,-0.9440865688297243,A
11.787339533830526,0.4005733574525461,-0.4366393216336347,A
12.42493158196221,2.387787080795497,-0.9286274519545653,A
10.998951111972021,1.3157278602263092,0.7416787327393197,A
13.948120294571666,2.419476237852716,0.5821314173017281,A
15.371473533638294,0.1522893555588183,0.023695315324445715,A
12.537434747866023,-1.0017646853500852,1.226599204780196,A
9.390782541455842,-1.6120718399204343,-0.09065080862241734,A
10.380488682089702,-3.001473778144537,-1.1681874901846367,A
12.887935202078257,-4.534635536852968,-2.7900897476124147,A
9.974154843875747,-3.9030381193355823,-3.269214277699073,A
12.536054034720381,-4.4479900599887126,-3.4561777895356323,A
10.55782032079215,-5.103177733631346,-3.429162761647039,A
12.319541225038284,-4.664922655159145,-3.2382219778793013,A
13.370419421962179,-1.991366755953542,-3.3519190017280183,A
10.998434370442569,-0.661386132023758,-1.4860415785264909,A
12.372666537405243,-0.6378358039484847,-0.6775933583793867,A
11.512284680423791,1.5943297341599965,-0.44234376210218684,A
11.602162123818257,1.7022109787437936,-0.4379190653531575,A
12.368767048838738,2.8065135928001186,-0.07181984578447521,A
14.436745964201306,-0.9499918391067452,0.054224812100751925,A
12.84745315241186,-0.5966797214052383,2.0473973985403213,A
9.391662063551337,-0.5738415142329967,1.962970796472069,A
9.24201358897423,-3.7870837819723397,-0.4019045666196358,A
13.38394670068169,-3.625161165018076,-2.765535293689224,A
10.765377140116149,-3.4892093426791613,-3.501593910697385,A
11.760110297017793,-2.962190728803835,-3.188949264828436,A
10.551069025449697,-4.789561303035125,-3.6073740316687313,A
11.39499380537688,-5.300990333692889,-3.5602702734593152,A
12.500827409651489,-3.2895305476178707,-3.5410469298408547,A
10.53871249207662,0.030508918254983183,-1.6981955267659772,A
11.052104020013779,-0.7103596076331682,-0.7190031548143176,A
12.80820481266779,0.5566914797042187,-0.7601225063876103,A
11.67444764841099,2.9991891522476473,-0.35481203584243165,A
12.713938851749356,1.3760995567447427,0.22803895313686892,A
14.240548191098927,0.221564647114122,0.9705573585680277,A
13.467074699624742,0.4792972624214973,1.9725598416328665,A
11.564699461035245,-0.027670608741312535,1.8374205382538753,A
8.345773682579411,-2.3554194541901707,0.041984622676397666,A
13.212362909685115,-2.643593378090628,-2.0218713249268565,A
10.993950476341732,-4.059509260576345,-3.535594028268949,A
10.734145345171294,-3.8048391002970745,-2.9677937775004946,A
12.882413488407401,-5.643516556248361,-3.806080347455189,A
11.61303556199705,-4.316070598023148,-3.6182161335746503,A
13.9706196519645,-2.353423385083101,-3.598206195272161,A
10.861974872845824,-1.3118150651694498,-1.8790516918919558,A
11.198930514494737,-0.32441291036180087,-1.2418993848153004,A
12.271949577710101,0.41799384073257984,-1.0035164722960794,A
12.256718082032526,2.2978119802639205,-0.8811525208737894,A
10.836711630000696,1.9275850205183591,1.0092545937090835,A
16.012573374858967,1.6600828878583822,0.12044979941273298,A
14.511840748009757,0.10632664139168375,1.3939879463883231,A
13.49651645692476,-0.08543592710740786,1.2417867061676375,A
9.170152837793225,-2.5635113492913737,-0.3036686357090482,A
13.151559871769509,-3.2568733994007006,-1.9098368621338258,A
11.682025902645039,-4.642171643752975,-3.532679372478905,A
10.621473125663178,-4.162076023107099,-3.3768759563250756,A
9.189747854552465,-4.150398484999594,-3.487293301537268,A
11.139302596026507,-5.812648711793215,-2.7885169101354923,A
13.387766655821718,-3.464126990171117,-4.383814183300475,A
13.094579619023667,-1.3189246340053118,-3.2022724287646103,A
12.94097958472946,-0.17996301055105468,-1.542029534039403,A
13.326543156778131,0.36483416410041397,-1.0992643119397445,A
12.334711708265793,1.6301272549720471,-0.26956297957351477,A
11.880376755700814,3.0604918242690218,1.2888617335930899,A
15.29738458678495,3.1565981148768105,0.7432730950539355,A
13.920284260241385,0.8579126328637792,2.3836889863677024,A
15.574670435525851,1.6053472887675087,0.5919393303029754,A
10.883772615372207,-3.909644390851946,-0.3914623882957324,A
11.132394856877463,-3.747354942051081,-0.9988747656583328,A
13.318806665256833,-5.132906075080217,-2.876573247915716,A
10.82824034690625,-4.627693431277073,-3.5719277219445207,A
10.093281739180895,-4.716787230908531,-4.038312491349101,A
9.797514224908083,-4.7524089178305955,-3.170252212194648,A
13.551695165875296,-3.984048798511547,-4.0778026075452285,A
14.046405499621212,-1.7997772061586463,-3.932958540323278,A
12.834604094942875,-0.6090150143737849,-1.8790137774289324,A
12.680629015966085,-0.3224434672696659,-0.7520451265040915,A
12.167776314755471,1.6744881247155918,-0.04427439171280972,A
11.270579780617823,2.0148766843889683,0.8051269773304283,A
13.662528484117605,2.0574919002099965,0.5692652847115789,A
14.869042984309173,0.7182951119949277,0.702046102368001,A
14.627974932253297,-0.05030466135190074,0.8947094247822963,A
10.839148963456052,-1.8066269471194298,-0.12322347055457122,A
10.287738006858815,-3.329932004122092,-1.3607651143343922,A
13.061249262853181,-4.602943271115688,-2.8490358049528064,A
11.691503691287627,-5.0086447791962065,-3.6639011553062883,A
9.891611232687431,-4.363448407336815,-4.110631641284911,A
10.6437420757262,-5.18062547390286,-3.5615713716597184,A
13.077695673106776,-3.533539704811928,-4.169062739611376,A
13.068090202433892,-2.647280099213758,-3.881457856750658,A
11.731587929473639,-0.7460282379563814,-2.240955712530974,A
12.989127688937712,-0.4931284547360074,-0.8204678340547098,A
13.638191016818793,1.3366710427007136,-0.5857564117094152,A
10.992922645493246,2.3292878882362142,0.7776658633696514,A
13.136739057885565,2.5921689624722415,1.0176650260196927,A
14.861608499536635,1.6471914704548871,0.6669981297131803,A
14.518283771362691,-0.29408915124872587,1.2849638525658302,A
11.671383605217166,-1.0466471723978452,0.028736086949357257,A
9.325957839761937,-3.5897152357847664,-0.7083935883600353,A
12.64001647121802,-4.760510175996379,-2.113425824178348,A
11.151889792420747,-5.169768522640978,-3.0326598428493656,A
11.620413618566683,-4.211635273119992,-4.007345852108691,A
9.647995909879624,-4.920844981270928,-3.5304538532721135,A
12.73227939827943,-4.18264440140124,-3.993591665810211,A
13.503365542412158,-2.1078281588443417,-4.22343325630791,A
11.813269160291332,-0.5179103907638484,-1.8865320929529985,A
11.076186770903977,0.4417785413821118,-0.6490084778529996,A
12.940096235813096,0.41995465429684997,-0.7786765123206614,A
11.94471845086787,1.8183815067616307,-0.2492788653237727,A
12.565361285153804,2.0463110772103894,0.6217109489822102,A
14.756004304187595,1.6720293040903287,0.40991778888280567,A
13.332482344703013,-0.16027572101374923,1.789751929708431,A
12.006948543075064,-0.6402475238159383,0.7152263258287966,A
8.625453066083928,-3.131929353983615,0.0785232239079121,A
12.80579858072819,-3.5830171096339063,-1.6053578396102914,A
11.392236898759641,-5.2996558770663444,-2.5457902603463087,A
11.841709501865719,-4.090758723614357,-3.1058691586566405,A
11.05113910767109,-5.031336842260715,-3.6717682221249945,A
10.498139150652877,-4.995656063815502,-3.1397606522567565,A
14.09083879982205,-3.1104067156179602,-4.1247429072789155,A
11.09995622373645,-0.11343439410687144,-2.311216508013451,A
11.621917332631867,-1.1021766156228494,-0.9369810687720627,A
12.64155774888717,-0.32448617309828975,-0.8523077230046413,A
12.959735173855035,1.611570971114119,-0.17110026342127552,A
12.42043162303711,2.9650002269468487,1.9707057235221068,A
14.831131027090771,2.9660590201673434,1.1104647638121885,A
14.059787526281537,-0.6073771798621143,1.2904174379508213,A
13.652994695256458,-0.13692282497164474,0.031849187355423206,A
10.088387880158091,-3.336320386090382,-1.093326703884867,A
11.521372890827333,-4.081771592978398,-1.4125227391265416,A
11.524257680641067,-4.686008147341846,-2.770735534749218,A
11.291614969443659,-4.955023998154256,-3.022166277664741,A
14.083709379394058,-6.587368945699194,-3.756761321796735,A
9.782829027191331,-4.966684059203413,-3.001772989930416,A
14.090662396394716,-3.832782243525165,-3.499385724534529,A
11.879146264972825,-0.49910898920094965,-2.2572087946810933,A
11.990831549637816,-0.2083946452136332,-0.9814225358571314,A
12.142731936653208,-0.2343038209231915,-1.0424170045784154,A
13.161435584395448,2.7735294159023685,-0.8225362291289009,A
11.65545822321351,1.0550625808120417,2.4189148748456475,A
13.85023899083098,4.681139682587393,1.020375048784254,A
15.958348686302086,-0.875242291671425,0.5101805175395022,A
12.338223793778047,-1.6595027607683648,0.7556999811939727,A
11.188229216880865,-2.019872991462609,-1.4092921825451212,A
12.233511027972831,-5.189277661262255,-1.510505418065566,A
12.071370396517699,-4.7387811593560665,-3.1503909056064625,A
9.947725068740318,-5.900832427396961,-3.4346708792501355,A
12.198822719089494,-5.468845873048812,-3.710388960899021,A
11.626276341878778,-5.886639886434504,-3.250018515381352,A
14.803502395745436,-2.086566094914874,-4.177620503864956,A
12.73559500635948,-1.542939042126401,-2.3496041808132984,A
12.055822749163825,0.06867160521612631,-1.513583841728794,A
12.922619451511787,-0.5473229790783908,-0.9797588161244437,A
12.249314398759969,2.908454205877453,-0.5094590543183604,A
11.025580473178948,0.5393715482054251,1.7980872866884856,A
13.622053385623083,3.5665390153899996,1.361733013048353,A
15.21151836798965,0.17952519175704112,0.34778290442312815,A
12.943058441035246,-2.1988559654064357,0.73699230259209,A
10.271940234598313,-2.0637940839567963,-0.60487813074785,A
12.436319337849662,-4.2294318216033275,-2.30059735481497,A
13.255923079141205,-5.525104157898464,-3.9211029574650196,A
10.357424111305509,-5.494585342545993,-4.034839686302831,A
10.329011957016633,-5.411189311146457,-2.916027034730417,A
12.915882629440327,-6.101194717852786,-3.684250478418036,A
14.285365249675893,-2.618207656427895,-4.167076391368704,A
12.905855128423951,-1.6229549346583996,-2.469598372365169,A
11.26071641838536,-0.07277604954194054,-0.7271326028350292,A
12.900240096094093,-0.1902765354568292,-0.8080886404995908,A
12.201082243149669,2.2935382725079005,-0.42341197668669783,A
12.782545991266266,2.034993183266753,1.16556322628839,A
13.227455675263178,1.7030982540976183,2.333035087523597,A
15.431968552502099,1.730345637791155,1.5356313746440748,A
13.608740646397504,-1.490552662694737,0.9516503365418206,A
10.298387703385556,-2.4790243430367127,-0.7701844862762846,A
13.54507437638276,-5.652736445953772,-2.589270731565578,A
12.077958773714684,-5.532542669988643,-4.100904628431125,A
9.907881994567381,-4.232711965847678,-4.231885246453818,A
10.200037250395734,-4.957776650874802,-4.238010591012977,A
11.37803858065673,-4.923240314525271,-4.179675807907364,A
14.446393491448893,-2.585485989082188,-4.66014362971614,A
12.552565735375707,-1.1898458144858257,-2.78505690634548,A
12.20725310719588,-0.6494626269785733,-0.49513229950005355,A
12.430203475365678,1.0645244387151318,-0.06956413226293744,A
13.102097492944239,1.1425155140342698,1.0534970349357806,A
12.535462395314848,3.0523034560318054,2.253651534610584,A
14.770282984789258,2.8174951038124125,0.7090413243072975,A
15.1971039108193,-0.03588149985450496,0.6999361839744139,A
12.01264721729887,-0.9334762767770113,0.9990377708050269,A
8.888334123005059,-2.81891831677662,-0.1367494352082708,A
11.997136650589958,-3.836718186075197,-1.2273823161883524,A
12.10104825960569,-4.902517564232974,-2.8736756687208693,A
10.53544573863436,-4.2817374312955225,-3.0318382523502354,A
10.593716106943235,-4.941248946689609,-3.5363109908516215,A
10.74152179704047,-5.223257693347532,-2.948195220079118,A
13.204349453097272,-3.4741070424514695,-4.077902300599711,A
11.341906093290552,-1.2974221719924726,-1.7765363649765298,A
11.096720487178741,-0.8926814342894118,-0.04225934335609726,A
11.656424162076478,0.48492435613680285,0.6310574088413909,A
12.603049433363584,1.8953081258895146,0.6881076522231495,A
12.158938547599407,2.707561372148032,2.1819433419550966,A
13.287947534303653,3.305342381482949,0.5115530354930977,A
14.219588362592638,0.2860439733933608,0.8903059893637233,A
11.473666681538294,-1.1884670291447907,2.527262868222035,A
8.523895979420386,-2.245762585507405,0.5524574186386682,A
10.38299191710788,-4.333053274912342,-0.5052109197762251,A
11.856976993229523,-4.486867832699303,-2.4454729235456334,A
9.985057690814573,-4.902028806146073,-1.9422557105836242,A
13.96606732742603,-5.075903155089976,-3.3401274192744688,A
9.988816380788474,-4.851421114583677,-3.1840626016811617,A
12.714211548837648,-3.1685267723900776,-3.608295875682,A
11.14697362618627,-1.13826577223709,-1.7455411590117,A
10.312257158106519,-0.9385283955813868,-0.4873920952971908,A
11.008813090629795,0.06761287844716102,0.6410582555118378,A
12.035940256885244,2.665830404543107,-0.3336362754971833,A
13.190452939187017,0.7263069310824544,1.246219661313253,A
11.664545131778695,3.6476137719676256,2.1919682475395037,A
14.199362948733139,0.8465925339953235,1.4776660590478932,A
12.289233647440094,-0.47720437232298424,2.0502738316463733,A
8.445862112744882,-1.8015194555253,0.4751357514693332,A
9.921589710420468,-3.2270794939175027,-0.14165727510029757,A
12.140182063801735,-3.7965708729158436,-1.8816190116971594,A
10.293717156532601,-4.337329067767032,-2.2997193125142084,A
12.607418945830286,-6.053864711521339,-2.909104963774117,A
10.904247115743766,-6.181663252212442,-1.863225481292722,A
11.546695457348106,-3.820166586642999,-2.4356825717753505,A
12.373071298903048,-1.8308054139579413,-1.4943241112750358,A
11.203393321829754,-0.33703247955168714,-0.024421795442084754,A
10.844223025098454,0.12292301028445639,0.7182603693947058,A
11.472830662885046,2.4605154116601637,0.880683780360038,A
12.461359012360203,1.7477174911140478,2.322126470317181,A
12.350857966501954,3.285617526613789,2.8947926097936483,A
15.876281343106168,2.5965478694723103,1.764660244955265,A
13.345103867593433,-1.2003715216297768,3.186724212240126,A
10.306324344192609,-0.9470232354072726,2.427089286614927,A
11.062842521586505,-3.9508096021889467,0.4756284627698388,A
11.647648931082015,-5.0916196730424925,-1.663828699911874,A
10.276902169061024,-6.04552198203814,-2.0479922694354693,A
11.578138971195948,-5.034022335837787,-2.6854736713784284,A
11.335629588860336,-5.710428518964405,-1.8367763251664229,A
12.69594394408515,-4.119902180295726,-1.7007943817563407,A
12.790103842888222,-3.206056008361652,-1.9044110824050033,A
10.633460659993695,-0.8250464576321245,-0.3207979555582864,A
11.963230559419914,0.7940990709134685,0.6787371514730675,A
11.561678546536172,3.079864667228259,0.8548184318836499,A
12.751258013885172,1.987104647477174,2.1441861083281,A
12.639826479082743,3.9344400948561553,2.8174717007197434,A
13.731687190431188,2.8017668704189975,2.3943386296769313,A
13.598218716317547,0.08217725645949439,2.0829285441766627,A
9.00891362818602,-0.1328377010814936,2.6491758029467403,A
10.535110633162079,-3.7458932590385516,-0.20510226912374682,A
11.314695992112014,-4.705615142593349,-1.258189918146516,A
10.342311366644513,-5.021937093261511,-2.00469735362562,A
10.60995101070947,-5.159077311342481,-2.5116723652055932,A
12.404504147159072,-5.769682307332373,-2.83450522209721,A
12.218931420631668,-4.6345706188027185,-3.1913415549862165,A
13.21290315997169,-1.8827626727812656,-3.0229941262398228,A
9.627413993226758,-1.0358532896336015,-0.6232447906210071,A
11.865683555693408,0.4598024883443586,0.11999401725765513,A
11.588238337860535,1.3751700620041412,0.7794828571832403,A
13.101649226480692,3.0201431116060675,1.150401501597845,A
13.98852888623726,3.0816524886762258,2.227165731007284,A
12.132703669516815,2.5909145072073305,2.7082367482884226,A
14.503294910520207,1.2978765140711832,1.3190865088324752,A
10.179965570275682,-1.3002720167595858,1.2769359600754746,A
9.880971426721944,-2.5676924745581062,-0.6513975903483428,A
12.66675435481551,-4.774123267815853,-1.789597905540579,A
10.236155978073963,-4.117869848045842,-2.669542692670668,A
11.13742773695247,-4.876352008019,-3.047901024168555,A
12.047923238742209,-5.705697051629546,-3.6626657161269227,A
11.621694779371536,-3.2305211796401894,-3.8291964109806984,A
12.571101902705298,-2.164064710375262,-3.1224090583403026,A
10.737142731867557,-1.4244024594551716,-1.4082958949180338,A
10.784671432258904,-0.21369293341892745,-0.3264479815175823,A
12.34567395964722,0.924984984381575,-0.29321964259387795,A
12.14459190468679,2.4166976608294837,0.4376897376959031,A
15.32763843345713,1.4224188568259237,1.1023125756193757,A
11.090553682405888,1.1556887270873195,2.0272102982424522,A
13.300191309249909,1.3980981859148462,1.4329709616919506,A
10.922099923326753,-1.8506819179986127,2.0602714794556025,A
9.263596452424565,-2.5025768952548844,0.278893163256134,A
11.925929404151114,-3.5375709628485583,-1.3902339803670483,A
11.660550342766395,-4.391553594499069,-2.6354376985265784,A
10.787694405877703,-3.9344982504058588,-2.850604074714171,A
12.458168284869993,-5.8202702994087785,-3.5634429719283696,A
9.694796408055963,-4.4824653303799495,-3.1288427187895445,A
13.33401013984333,-2.874002742178272,-3.7541614189841255,A
11.104226231181535,-1.4766246760677104,-2.077129292595849,A
10.764124330602167,-0.23572275170411805,-0.5806231325458648,A
11.666852465367572,-0.6106265581014096,-0.451243902572982,A
12.94507986061733,2.361398491290781,-0.0689351483144289,A
12.302999049181626,1.516282859970562,2.1981342740149477,A
13.533218874378159,4.120172420963642,1.6455836077998878,A
15.304268550720135,0.895257960312779,1.0110385394480994,A
11.762598891537113,-0.7110346142469753,1.5505662716727282,A
9.552712004817286,-1.6531696225224042,-0.39028034575941084,A
11.051984559183456,-4.92314327854949,-0.9970166785633213,A
11.893041200141331,-4.109617753616012,-2.490606124279858,A
9.757359872452007,-4.357349884339062,-2.654971662973676,A
13.053623704315468,-5.066877660531939,-3.548525673492304,A
10.389630405148568,-5.75131879531387,-3.3944211104884054,A
12.381101411845925,-3.1509685257423325,-3.9334184109822186,A
13.784403427327481,-1.1180947499086684,-2.5144749604441667,A
10.433967198744181,-0.445869327448225,-1.0140958330299623,A
12.807044603956086,-0.2486275793574044,-0.4070042973153724,A
11.622544909257554,2.966166026327021,0.022826845608531172,A
12.760880543695936,1.752726168064795,1.6927043467246403,A
12.802836157909068,3.6402610594282394,2.482917278294245,A
15.319588077191261,1.5194000629808124,0.9957110809667691,A
13.1259572060386,-0.7781637302878232,1.326809833885294,A
10.059114733760628,-1.6665411130629257,0.006991005396309835,A
11.802627071573493,-4.08597705009668,-1.8175389402240725,A
12.0224723179244,-4.659826007196011,-2.5710559099626256,A
10.145396796815424,-4.070446584230029,-3.263256362830916,A
10.57917426332967,-5.334479639203439,-3.127146620226357,A
11.341170698159118,-5.94397447862438,-4.355131204119414,A
13.046410448440344,-3.2845772960328428,-3.890548261439732,A
13.684271552174161,-1.656015746888334,-2.026484724437004,A
11.18210894825382,-1.3807270895342636,-0.09564420176505524,A
11.739627474338189,0.899097781324904,0.4941562050598371,A
12.444134330100518,1.136467409897197,0.5227835823062467,A
12.693800740611811,2.9341617166696663,1.7185549696624454,A
14.32447089955218,3.9018095878755603,1.4269094457652425,A
13.861578598153786,0.8340760672493581,1.878043653763905,A
13.634501279154756,0.32405890878134275,1.6081810720160485,A
9.445022616738337,-2.564609897304155,-0.18622315840667727,A
11.660000699861493,-4.752000445756291,-2.010403807094831,A
11.690764876740602,-5.077928086153698,-2.359057681842609,A
9.990280740264073,-3.635755197210369,-3.391138941862356,A
9.870436047632285,-5.603248429639564,-3.2555572975470204,A
12.536690863758079,-4.835971875833516,-4.465476382633479,A
13.17123892253709,-2.9554139974948423,-4.392346688810715,A
11.034440077047995,-0.8769170343706546,-3.909544356136153,A
10.31998928945745,-1.2526548130793413,-1.0056403890809262,A
12.079203634421008,0.20893209056457004,0.3698622898540496,A
12.411349603459666,1.5037541448550347,0.005136921298825532,A
12.147685785064146,2.0987284918150206,1.5379540041487838,A
15.835729372915573,2.429577081409856,0.08294850511321358,A
13.741697206995925,-0.5112895183533541,2.0138931372101263,A
12.516899793441146,0.7481255008514457,1.1382074274882517,A
8.970061524341725,-2.6514741905197696,-0.16097911398958611,A
10.878011594746495,-3.436786581163891,-1.778808473225199,A
11.587754279421832,-4.23359682489055,-3.258677787645399,A
10.592825166079646,-2.9374399168141534,-3.56604199704465,A
12.79074897621549,-4.404812521530519,-3.854290826222059,A
10.095905770473502,-5.5520844393940365,-3.535823955289384,A
12.672802214274155,-3.793565555056706,-4.1314602675077134,A
11.22760568328466,-0.9926487820376336,-2.498644698191057,A
10.715732215119932,-1.5615056558137475,-0.4808344848442575,A
11.779995128096862,-0.22742834559643801,0.1432384804752072,A
12.2553090760585,1.7718278863790358,-0.47985582818312045,A
12.578196912520307,1.6909312195419268,0.7709182635107024,A
13.4261308973581,1.9835035576192988,0.6997492977920508,A
13.19594811438639,0.49166202562096833,1.1620483154257093,A
12.365947976636278,1.3032526167336995,1.7843380604590553,A
8.997689599096516,-2.482595833152381,0.21650432959779364,A
9.554251307096594,-2.761929186253244,-1.0551722895316145,A
12.025436207890808,-4.272219141687567,-2.449157569272717,A
9.619949398459493,-3.5393394427177296,-2.6164843275903067,A
13.19846059925068,-3.9373037242652327,-3.2152209923660937,A
11.00789361896786,-4.7108420377724505,-3.7255398820663874,A
11.45904477694693,-3.8907948125618548,-3.710627863189239,A
11.907140149490763,-1.4078137161435014,-3.1687345736647927,A
9.292343613496705,-1.1265946053620002,-0.8246808143084862,A
10.847726442618841,-0.28386991786986093,-0.5387244859180617,A
11.697567684639576,1.0664040498361964,-0.7384344598603874,A
11.968806370300598,2.079446366680952,-0.32091998527699456,A
14.73710648544191,1.468353280444871,-0.0181226601716324,A
12.36443493560203,0.5399146325067339,1.2590706297363379,A
12.33105285432089,0.9073249489600416,1.868278908867738,A
11.016397716559636,-0.7731319334654716,0.5575070477455674,A
7.486102905104722,-3.0325500474909153,-0.44890063218998066,A
11.063411330882943,-3.909642908166763,-1.8326767974539326,A
10.203915833327494,-3.989657106600481,-2.001870247954439,A
11.131237077451102,-3.8508982590048233,-2.4790880801597193,A
12.704306842166964,-4.159431258179827,-2.9471743440406986,A
10.212777915413145,-4.413117001163635,-2.5471161910975404,A
11.552462514776545,-2.214796630060423,-3.3256889873072355,A
10.836316065876412,-1.0843535925857783,-1.8173906951573597,A
9.214206025840685,-0.6958641081617525,-0.6525908775743933,A
12.157768397162943,0.22079365056915937,-0.941466800571645,A
10.38297157833883,1.7732480303387597,-0.24472163999837676,A
14.173009727887065,0.6821579397005231,0.04418163707181598,A
10.878266334912025,1.6623575984924353,1.2309042406383346,A
12.655751759391235,0.5920811798773987,0.8920575667715098,A
12.308657238533188,-1.1139040242085494,1.0405229179539406,A
9.647629443530752,-2.3830276391844953,0.6835335555338797,A
9.792434429358835,-3.516515018076286,-0.8368429387382224,A
10.652086491158046,-3.9871718060613635,-1.5534463571028445,A
9.557305567540997,-3.7534054988137364,-1.942980641135257,A
13.37206717128403,-4.875489097066327,-2.51211983524783,A
11.1774488118497,-5.213328111942465,-2.313763816744191,A
10.804135059726653,-4.289650496362826,-2.5414267225424534,A
11.626489483797755,-2.0889123952110666,-2.5098913135574072,A
10.096756217377422,-0.7584944035118378,-1.3692495295663747,A
10.263510185735601,-0.9877792575371112,-1.0440591627704607,A
11.184596781428361,0.8025060777022573,-0.8928551618831343,A
10.597861951170504,0.9334523311070985,0.20923632153515406,A
14.451043383819066,1.8809219640168984,-3.34344523022628e-05,A
11.391713420019471,0.4087816270587599,1.7261776508072946,A
11.258054810889838,1.0324699432028124,2.4730080341242817,A
14.121476553637436,-0.14712818312755682,0.6389624751224434,A
8.951611828975551,-2.7067280498035298,0.45751202271127045,A
10.928665381556439,-2.415695730754369,-1.511052157598335,A
11.577489803380876,-4.456886702027138,-1.8578745083851158,A
11.024798952198278,-3.289153315213028,-2.5478373354151733,A
12.221908480945851,-4.866191847169412,-2.986015194065725,A
9.747652416299267,-4.837359159174702,-3.152547277324422,A
9.687745893457517,-4.250346237893688,-3.083127715279536,A
14.68532961629424,-2.8409720476653306,-3.771787153931588,A
9.634064000304237,-1.3434558824136722,-1.9386389158643391,A
12.652742036136805,-1.4059584145333501,-1.6125242900951589,A
14.186204228459008,0.217496444216645,-1.3788047736295286,A
14.187707877531992,2.2417298242633263,0.33773868965056775,A
12.81016051822048,4.644588583028648,1.0742722032177756,A
14.325692092879033,1.2888096059759688,0.79922944604885,A
13.26661059090279,0.7034239358017519,1.4263030069601907,A
13.17847001400639,0.04622426137638025,0.2666579188176273,A
9.464927055730879,-2.6804591238909277,0.10186999009031165,A
13.113173805780061,-4.023388558759151,-2.583446738198622,A
10.773509885022902,-5.28229514064076,-2.7758533032383395,A
11.050953039116575,-3.9752887147966867,-3.4479470483609433,A
11.591032542498025,-5.078665682144319,-3.999208277511092,A
10.770900834267652,-5.450714897737856,-3.724132121081616,A
14.010516352642172,-2.5075016836315016,-3.776366476401902,A
13.721914630014048,-1.8086875604687664,-3.241488518191328,A
12.34061852376341,-0.771813760687709,-1.714200261387069,A
13.05113348153604,0.16389721161282345,-1.536852407964457,A
12.03438030946909,1.3806268017186143,-0.9390347907668677,A
11.92285664532094,1.9945030746014525,0.09118429662448337,A
11.791729226432658,1.3977616057882751,2.0506242620747273,A
15.18589858212802,2.382843627980403,1.2462885507499633,A
13.732623759902527,-0.9264793612934153,1.1892656969337372,A
12.978754172948523,-0.746940984681291,-0.615226296752211,A
12.543661636937099,-4.370455723697313,-1.9747856576611083,A
13.492095581593958,-3.98634602026817,-3.551527337395561,A
10.132423938470058,-4.78518420994122,-3.4250858826665342,A
11.904609181275529,-2.8991592274209363,-4.260706071544342,A
10.407368535367333,-6.91636774373048,-4.466250692643188,A
10.422041250712436,-3.6909922934499946,-3.910683067114797,A
14.129846723594552,-3.209532509158885,-3.3904844441452893,A
13.080765985268675,-0.9541590412693137,-3.181700738050982,A
13.161232069355595,-1.5840673488225294,-1.823560423758873,A
13.93343805259835,1.22480885049611,-2.2433729180879056,A
11.542922066113233,0.8978742237031221,-1.1633076312212098,A
12.329150433540601,3.1981816044193483,-0.49133232673617383,A
13.469645754077893,1.576240911054204,0.6035764147028709,A
12.043180716337073,0.11702288353547703,2.2700841907563545,A
13.630906074261262,0.39876453638828074,0.8278091478558391,A
10.829698452234457,-2.5362991039377305,0.17814977863676934,A
12.1846479213729,-4.065751139191961,-1.657527870325924,A
12.895340821058168,-4.518877946537018,-2.190957224415865,A
10.573214692753115,-4.119906304678483,-2.182455131557451,A
12.205558814708153,-4.823694429191997,-2.2144550544753567,A
11.306063245022113,-6.741113002750762,-2.445525041774301,A
10.434951484094276,-5.0480778305488805,-2.794166840160349,A
15.298813558260889,-2.685270695718691,-4.0588273367610945,A
12.67808382897888,0.36102433687022883,-2.739140538754607,A
12.875703108310292,-1.208938524700653,-1.8452223583912777,A
12.991049072009835,0.6660707841317197,-1.420154727097054,A
10.85240077527758,0.9578353512199725,0.15689706733869468,A
12.4831442492972,3.325303455322706,0.6967573891985849,A
13.75578674466401,1.3654191329480763,1.2081892992419374,A
12.474815472464293,0.8437628146509012,2.209865392438608,A
15.988377231558395,1.3970310304928841,0.37525452153361527,A
12.522335957507096,-2.7394399879624833,-0.6939041919018907,A
14.474201346857539,-3.231026054016556,-3.07249438505609,A
12.692623930019575,-4.425195136523103,-3.873880519218148,A
10.931644337039998,-3.078924900849455,-4.308429381097005,A
10.676445630154774,-3.9942822250582752,-5.028284315610237,A
9.325590559725832,-6.694045025490961,-4.859087192992204,A
10.102030366373917,-4.936457062468975,-4.298764155286365,A
15.53493772278579,-3.1616065898091774,-4.3549320240883915,A
15.034451864025275,-1.4133620789205192,-2.9404521665287064,A
15.72515768096232,-1.2564537355997274,-2.219365913914046,A
14.988507054412072,0.44491780924783175,-1.2585493959822265,A
12.170412608051143,1.8114031223864095,0.3406657464299062,A
11.992319213728605,3.555918526354143,1.248036061534119,A
13.860369017822956,0.120303237788792,1.4246775679834598,A
13.791555821814379,1.924640551506707,1.8274524946779003,A
16.27934101493509,1.0535768929509512,-0.515963911271307,A
12.6340160491177,-3.446530440885435,-1.2586857145611392,A
14.167529377908863,-2.428569818205464,-2.560614352012455,A
13.076796351286308,-3.9401608563135793,-4.081415863147367,A
11.29069760515971,-3.4087872807179505,-3.968912864242074,A
10.115894446858114,-3.4565567772952748,-4.608280797818378,A
9.545181434120776,-6.29409458233919,-4.772457922222967,A
9.502763571255107,-5.062616998096022,-4.661144482084668,A
15.003275784251992,-2.900886835796064,-4.46436475213753,A
14.541649775072674,-0.8897491772747704,-3.3620404272720106,A
15.953591250596594,-1.3732663820033961,-2.31517634625307,A
14.845393237223533,0.48961137020030626,-1.7350886265846608,A
12.60144500753148,1.0975590994189648,-0.6641968634941917,A
10.557305164159704,3.227684152380266,0.4396525921998458,A
13.246347000374898,-0.07383536487496224,0.8869925344000062,A
13.926436252070069,0.4103381573712945,1.324769183062263,A
15.040531333674895,0.2766411856478218,-0.27875940026359375,A
11.106995795791418,-3.0734301345538624,-0.5972602378379358,A
12.736105321593,-0.354323453769276,-3.784193299574788,A
13.178280783654662,-3.8258033187747547,-4.145903882028399,A
10.950606662203914,-2.2885143251818905,-4.34680775617109,A
10.999861413374072,-3.3297984215612204,-4.146166020765671,A
10.878484691090991,-5.060211251614724,-4.632630730149052,A
8.774340301554728,-5.7919958355577545,-4.018985512826033,A
14.491714803058338,-3.6312112214167938,-4.190766732394694,A
12.972297176613232,-1.9578159627059066,-2.877478599969799,A
15.76322434820723,-0.882108524538839,-2.433771468926181,A
14.180067588044402,-0.49627898449424607,-1.16848227614675,A
11.89949428607782,1.6759392061804113,0.00462042858790555,A
11.125796671114358,2.352241772738996,0.2503986624562125,A
13.73057712712909,0.5229230049728363,1.1363868936295998,A
13.456680116653896,0.619154110993215,1.2147924535570191,A
15.500860330919538,-0.0936565052016925,-0.5409521549051199,A
10.18190152969748,-2.9750639782851067,-0.6305354277489937,A
13.134519072924078,-2.098767404881291,-2.168589123004817,A
12.344921314579056,-4.198095012840072,-3.4965478580350458,A
10.218344471588654,-3.2557650667512887,-3.7989118986294863,A
9.76933115773126,-4.456060593851632,-3.291810440103583,A
12.108257103291487,-4.955423983472974,-4.004504417929444,A
9.849816045886623,-5.645804847264366,-3.5436808372490183,A
14.999425956533255,-3.140719180005474,-4.064233678267782,A
12.878044981841656,-1.9776033229361918,-3.3562637566604927,A
15.413714591616468,-0.17932299667493487,-2.487342511737223,A
13.377920408771251,-0.7120062695902647,-1.9873761332588085,A
12.62547544844381,1.4286047107766873,-1.0124848577168388,A
8.884719627844834,1.5220327835087735,-0.25074365823500133,A
10.339505469561725,0.04703424679149582,1.6469402363269348,A
13.438742558256738,0.10758981894258705,0.18676026966555592,A
15.230981294472482,-3.359567794866403,0.5027564204253547,A
10.54135513766342,-1.2156200689501917,-0.5575904685542351,A
12.189453420676838,-2.0208909634243484,-2.4196790201527127,A
12.631627302214184,-3.6959313185115232,-3.5347772754545375,A
10.540439629908185,-3.663351933576814,-3.728588439960903,A
8.999827458997189,-2.6046031424159737,-3.3939272381461847,A
11.881643457165882,-4.04166478489179,-3.669233620809628,A
10.328778118253137,-5.811509758831269,-3.1761899153931874,A
13.063892127186797,-2.6982788048565713,-3.8971425335891925,A
12.882925213028972,-2.0062619539689006,-2.719732820022747,A
12.64187778934118,-0.20226843134401606,-1.31522022973005,A
11.9654621163061,-0.8802041431474389,-0.9895255270119168,A
11.747576790121077,1.4640139908344998,-0.7873763769184284,A
11.241784478664721,0.6896331738451937,-0.5513815326202878,A
11.841264836194659,2.0418960963643897,0.8979299286799186,A
11.033735745863662,-1.136285300699624,0.6691149350165418,A
15.313660996133729,0.4819551603794653,-0.8265354955375362,A
10.475211567861301,-2.8677524885185055,-0.7219972840085938,A
9.16582760359519,-2.263878006054366,-1.2496515747234278,A
9.86958440286228,-4.958305202238923,-1.1795855194533515,A
10.282359899484153,-4.723122810127234,-2.6350013270536112,A
16.60433891327392,-5.508945164458503,-5.686151034237411,A
9.453787458320937,-1.791229547904619,-4.649050474223771,A
12.122179375589594,-2.751795256458748,-4.917511106213398,A
7.117296218192064,-0.659656609376012,-4.050415971893054,A
10.561854900712998,-1.5947639919409018,-2.913299600892481,A
13.7051865022172,0.5773147829146728,-3.780780138121121,A
14.737432276783942,2.561782397845093,-2.885331211216293,A
15.056010026272235,3.7137830453211835,-1.5748573140630209,A
9.995736278150362,1.1648611238848519,0.19848405214030593,A
10.28061190612568,-0.2820290450210393,1.3560609048559862,A
11.67421941120067,0.9398041351354333,1.3665163937606772,A
8.764168929229577,-2.1766205824761995,1.986183708194585,A
10.677759437277246,-1.71045562685622,0.6621998981755165,A
9.428396156991276,-2.472599164851261,-0.48799382445063305,A
10.614028798176763,-2.2236161331036044,-1.5872708001983946,A
12.891487643998497,-2.3119478246063805,-3.035841619093898,A
10.643517453843552,-5.1108371779778885,-2.432544859956015,A
11.55433677092374,-2.600552652853641,-3.870040898081829,A
12.384825521666484,-1.4413338709327161,-3.4205049364813016,A
8.884026669663104,-0.46709253074301155,-1.551457557893108,A
10.541923737057528,-0.7185713297476642,-1.4078956852111773,A
10.863633929864559,0.6183799097774173,-1.3079074383922284,A
11.114798873575753,2.0949417980899794,-2.1141932310775853,A
13.041533371851095,0.7715700861972123,-1.2317657662698875,A
12.884048630481852,1.7493946157807736,-0.6208472592221842,A
11.965859244241969,-2.5336668127848694,1.6661729345622822,A
10.666357049301148,-0.10634516351582655,2.7596320155775396,A
6.9565236582553505,-2.701759468086227,0.6695091124997742,A
10.265449692222516,-2.7861373076968743,-1.7316300602688075,A
10.885453026208255,-2.938920824399563,-2.8722352642167492,A
10.055478790330802,-2.3597491984358587,-2.3441862725379212,A
15.83255309231041,-3.5209041070422966,-2.701377740338646,A
8.670361971354422,-4.841921866149725,-2.5792110602037233,A
13.312859838379724,-3.5046471337266616,-2.156141814388171,A
10.664703411877047,-3.7506013624360945,-0.6507113722425166,A
9.750606138062802,1.1317340755653742,0.9386648687308381,A
9.330843641763858,-0.12127580818391369,-0.7051382813430478,A
9.12066633744223,0.6118875725099732,-0.3867781334854624,A
10.362260638006353,1.323007501119463,-0.7343040909523535,A
15.418833440190364,-0.004329786992837132,-0.892291204940896,A
14.238788613091932,1.0671558762631148,-0.7675786664409513,A
12.59250774137183,-2.267676429319205,1.4717734765540762,A
7.3581171457370695,0.027472945608752755,1.097272026413794,A
7.085452487098307,1.2808214686663366,2.148406328569358,A
11.287737389601444,-1.0230508212905396,-1.3273414978055234,A
10.025141895786794,-4.388444894673165,-2.633495563828711,A
13.666486819673421,-2.329308257329751,-2.4806315152587457,A
11.392817585847522,-5.281638544584704,-2.137945235286185,A
9.610319381737279,-3.640728669067198,-2.047005807999212,A
13.2601533522656,-2.9122130924663256,-2.4045425752390677,A
9.61036668232334,-1.7318871949856536,-0.7487907290982805,A
9.091063788909693,-0.4536177102550539,0.023058842229716277,A
9.53864645011978,0.7315106466642836,-0.1848213141147451,A
11.194227663195274,0.803437482290459,-0.5021744170114311,A
14.70495628432219,0.7077496446663086,-0.7657334602585746,A
12.383229709060025,1.025836247702229,0.21923276042214798,A
13.495707617936878,-0.7662200531270476,1.0967258094974606,A
10.727216923135964,-0.8816707382623706,1.1861655526947137,A
7.635009557109008,-1.5253317463294405,0.3609322373523413,A
9.903294235602129,-2.6088362737199216,-1.233683741644416,A
10.4542878483621,-3.400374281325255,-2.3528347791039743,A
8.527975080002323,-3.5438404180947947,-1.8757566915095443,A
14.601841880446322,-4.180101045768371,-2.49936472942856,A
10.937101240051618,-4.998046313549089,-2.678008716755294,A
11.328068247511045,-2.5662585803440097,-3.2680326305094733,A
10.910563827783555,-2.1079720604013654,-1.9791215798157435,A
8.4751454287504,0.41943920432141674,-0.69321968767396,A
10.722595371026992,0.27392089874348385,-0.9675839914932128,A
11.503221324010113,1.0884521850680904,-1.2216781681887732,A
11.99261473833528,1.0602677360097363,0.41394135977433183,A
13.136416279718492,3.0135853649833777,-0.43045226345407095,A
10.23123940829382,-1.6488318187472601,0.1414850573967276,A
14.059207853585455,2.0385995326365363,0.2055268407813604,A
9.515273131779157,-2.3937231059268664,0.27307910193632196,A
6.576292224925519,-3.0148584261509472,0.8908800994086368,A
7.506221526600796,-3.817533366398193,0.004040968302873687,A
6.278869151928616,-5.8189076898028596,-0.065162842971769,A
8.732090206569989,-5.0311353306425435,-0.1314520019667549,A
8.37496901899826,-1.6816054775773646,-1.0947684970395903,A
10.38180992323152,-3.0064531056472292,-1.6259715363751033,A
18.992434590874723,-4.0477625508451345,-3.4435941969888595,A
18.932104487163212,-4.026483505538467,-3.8731623761472003,A
10.818278160670497,1.2047623837493904,-0.8006130147129795,A
9.619015078095392,0.7686823391867132,1.5321558560361075,A
8.350406355020365,-2.0274238491547965,2.9563403435454076,A
11.791823155150066,1.1372939806145137,3.061486496520157,A
15.781227311055927,4.50518577714298,1.0099225143746808,A
20.925940014780515,-0.7633847763758465,-0.9038535521387681,A
16.354528832216335,-0.38991502171439946,-1.3875448596539293,A
9.16147369923043,-2.4066059345045856,-2.6436995376283488,A
10.497105718320963,-2.2514980295941944,-3.4526076520941444,A
11.7132092342452,-2.366172080995941,-5.317361887980771,A
9.552982323007543,-2.9914864288942593,-5.588009395560495,A
10.354839626576263,-2.193895776290107,-4.702345763049085,A
10.66401500122401,-6.540325493347993,-3.0767453354647945,A
13.873525990765899,-4.387697617150122,-4.291170439899497,A
13.345559175015486,-2.5543018834574487,-1.2052989819440256,A
12.51330750686846,-4.4405598897593315,-1.065549368572289,A
14.41234449591134,-3.00371303986856,-0.07351433654877539,A
14.631148240104375,1.223564392685632,-0.07480824280093837,A
11.216142994828392,1.298115719004689,1.4070089044177283,A
11.05632393028227,0.4980985051718861,1.466741895263173,A
16.427819634480336,0.32591214654579526,-0.7623071585922692,A
15.929756952610186,-0.5135820757407702,-1.8185427461485206,A
10.626615534958406,-2.462802498951148,-1.4402294224280574,A
8.315701732852345,-1.713673635109128,-2.183143530001998,A
11.470328964371785,-2.1771092497536206,-3.6288404725909027,A
9.879554015224542,-2.6415356646545085,-4.076423689447944,A
12.362687387588192,-2.563083794555042,-4.303740906098912,A
11.914649187595073,-4.539572073996534,-3.723943590232091,A
10.084345445231879,-6.786917137709728,-2.8452370500022433,A
14.479942523357293,-2.763020582875271,-2.968709933545644,A
10.929910391586068,-2.684885861539216,-1.8112956297857474,A
13.255201988139977,-1.7346466712816355,-1.9981403870680667,A
11.52715069395303,0.5372337210434661,-1.3560760339193025,A
12.269256961378508,1.682470875714922,-0.8582818361534498,A
11.307764171857986,3.527783120397674,-1.128514892968681,A
15.873202141583448,1.1298515911795781,-1.0540264783839792,A
15.276568468618956,-2.2944089118808226,1.875734714202213,A
13.091474826858857,1.5074212775362008,1.3968672251048375,A
8.612067221586399,-2.9669622599044994,0.8931250327272785,A
9.581538101187775,-1.5323260023206224,-2.325307159479819,A
11.175052399848465,-3.2891589984197536,-3.4282282064865806,A
11.705735962416428,-1.758875360823087,-5.132763286665501,A
13.03744700328175,-3.3039312010075848,-4.702356987245738,A
11.301915576091151,-6.04685885650046,-4.152012170333653,A
13.11450239933302,-4.196589032090126,-4.560547514813884,A
11.268933039639508,-1.1513131915090762,-3.1185815454762458,A
12.076951324313903,-1.5572542515931938,-1.7783426663720991,A
12.532708734400659,-1.0081575363025763,-1.8317353235462295,A
13.697300826026956,0.8142047392504745,-0.9198719416171225,A
15.410735968406913,2.36210853750082,-3.413955982473543,A
14.289413023135527,-0.9048276950325365,-1.2545037058815711,A
10.688357533535466,-2.699616606775625,-1.5124483365564318,A
12.919566562335364,1.4129207267707669,-2.2876979960686326,A
10.430539289279343,-0.4516371838815817,-2.020032322121283,A
6.570972003189716,0.22122076689707884,-1.7091189793980515,A
7.894177311679247,-1.203459568212904,-0.1794252260824712,A
7.934459049756882,0.6510180532352047,-0.9450932044147414,A
7.634002904234291,-0.09795055404183174,-0.47945494269390687,A
8.80260027250234,-0.5514415209125204,-0.5073150147692133,A
9.402510961338752,-1.615661080432104,-1.3637594834037607,A
14.995947054357885,-3.4173283267541463,-2.3850792607386118,A
9.106432485914363,-5.452999666763988,-1.5244834861573746,A
9.754406719059054,-4.229896977817502,-2.1571894240124805,A
14.735529603301146,-3.5091686541575564,-2.92031167643643,A
10.640086937286025,-1.295064213930604,-2.026808418077789,A
12.109725353152678,-0.7858667509008687,-2.2366470194266186,A
10.309722306171972,0.26371224302175456,-2.309453731808326,A
11.279424419405183,0.3186713774480577,-2.0313322359378403,A
10.738391666629113,0.8510439004530201,-2.648839553189759,A
12.914267201128403,1.6656957945080708,-2.2465744631089137,A
9.242166782485887,-2.5606582074051163,0.13937390117170745,A
12.514985425168499,-0.5325664014822471,1.4345909427225232,A
8.794066491914451,-2.6293715286967396,3.5230571015829066,A
9.054714324039024,-0.8345663079636939,2.5692040572256727,A
10.652080939531915,-2.9194294143053963,-0.10789502790661139,A
11.32779614621962,-0.9092029635426652,-2.3578313102928417,A
10.639748859458956,-1.4482821962051544,-2.5574501318557523,A
14.785793935391807,-3.3472525476100174,-3.2734506863895896,A
10.093062574968734,-5.961565838807978,-2.4113322816458562,A
8.550360325049905,-3.986901018400901,-2.2228013096199075,A
12.366996330104596,-3.2402514243470355,-2.7830693109597826,A
11.771625844373721,-1.2838772410714434,-2.202272649062979,A
12.536311147368504,-0.4561748158500356,-2.5008058096454002,A
11.830424987222365,0.37600414609662147,-2.6085040375809374,A
10.880015188023599,-0.3243019337039069,-2.2203456555240124,A
11.166768997879538,1.7912837431583255,-2.0383035661290014,A
13.570459984111451,1.8757910847696515,-1.6316324589900926,A
8.181868655160255,-0.9063697670942251,1.379745777595908,A
12.994667292179345,0.9161793464598709,1.0668371438275088,A
9.968337023803972,-1.1125725167594112,1.4814511120148361,A
11.19940416403058,-1.3693208584079033,0.39217420155670724,A
12.559169652516411,-3.3280947670822525,-0.8808727499065886,A
11.345970746538496,-4.649630417442556,-1.101139641828879,A
10.523832704341906,-3.2902979832691672,-1.354207934331282,A
12.673728992114963,-3.895911094602961,-2.7982108317682433,A
9.847682434931755,-5.292675564114514,-2.4585995666810962,A
11.800154695980076,-2.803008202860243,-2.9859776182626407,A
13.39101625323792,-2.2363366398293802,-3.196479964834464,A
12.610285182340188,-0.1867099711233725,-2.6471112121683014,A
12.143706105935273,-0.2836011442955576,-2.650499967974199,A
10.965329776878933,1.0372284202001192,-1.6970473097044803,A
10.347393830945109,0.10499270296899665,-0.9391298886259462,A
11.789068779424698,2.5774873319335674,-0.6244374946690593,A
11.89772712811468,0.028149236196844934,-0.5430852977674726,A
11.2348723671038,-0.3960051743021361,1.2355744424374238,A
13.903790091093922,0.29676035132968975,0.729766413382667,A
10.160959371520942,-2.079124473960749,0.45053911208314423,A
12.885421565746203,-2.4370814154594873,-1.2113769866189896,A
12.147041338744387,-4.559458438092277,-1.6288845867898143,A
10.856684426157749,-4.430781765274999,-2.009501590183084,A
10.897828315696282,-4.773801902473474,-2.587192068948074,A
12.635621438963847,-4.810701636649135,-3.059051254442051,A
10.265548630158532,-3.3253752317275858,-2.9310599520484044,A
15.33414674046529,-2.308006745551278,-3.7493021226031957,A
11.871462223883796,-1.7811191661202121,-2.8322884170814246,A
13.231162567590353,-0.6729517381786845,-2.7890323261803234,A
11.28769818716003,0.43077733848131305,-2.2016055265186845,A
9.68745953742356,1.5008263544039775,-1.560686724274207,A
9.364780684566698,1.3918498305267892,-1.2608160976527583,A
12.100255874758826,1.1962057347681627,-1.144198746418364,A
10.728138729151341,-0.6484375791829863,-1.3971595780749724,A
14.309447873854104,-5.023530273197932,0.4401949580388798,A
9.74716105086764,-3.2676266108939136,0.861816982349712,A
9.867751584983873,-2.3830477835438684,-0.37506460416987486,A
12.074261219497846,-3.6926341815921004,-1.2937700749989096,A
11.194954872321558,-3.0889694848318237,-2.416489573703096,A
10.323912878653658,-2.2791503162195954,-2.3239167351228995,A
13.685151362863952,-3.02688191032749,-3.558787306029198,A
8.514817750301546,-5.3119462477394315,-2.421972981177263,A
10.82522836349466,-4.0522455717664325,-2.9352367765758003,A
11.765079652596699,-3.399527037782823,-2.827131755239915,A
11.081018661187109,-0.9367368758194194,-2.4689146088576437,A
11.05619130460841,-0.5973849853121393,-2.0129543269844947,A
11.890028828547399,0.5848938298612381,-2.262994720092512,A
11.951310617028051,1.0977844082109476,-1.783238081226174,A
12.060717298996048,1.961927397942507,-1.406354082662926,A
11.61281667179721,-0.7192083477925635,0.3076108228948666,A
10.73797702922528,0.2526326378764003,1.6110613815005765,A
12.630976716261896,-0.5788470431801506,0.8755838744577277,A
9.084525527338652,-1.4435945690781917,1.034439253144697,A
13.096841402447062,-2.365510696606765,-0.8443369044345016,A
12.733104179152553,-3.9439008742618196,-2.193103904122094,A
9.675658323496137,-3.810818967204994,-1.5943224936784701,A
12.679195075877502,-4.223270363301539,-2.7334279586190537,A
11.342180883220127,-5.309925633454746,-2.924126828455603,A
10.160980975014223,-4.991965286277527,-2.7151154311357257,A
15.049722185550742,-3.4194844195462353,-3.356588841165816,A
12.122972019222658,-0.7875010964315258,-2.813619254697163,A
13.690804409236463,-0.14674612907139806,-1.971617852893344,A
12.08144037677081,0.012689260449369518,-2.053699236084519,A
11.187079251785061,0.8236398709022332,-1.118762209718547,A
9.626847359278724,1.6386779270733336,-0.6342300841901862,A
11.856980756166005,0.7745553235126179,0.7553630546487047,A
10.703408961982799,-1.8047932947989167,0.7687017263592406,A
15.107496206528426,-0.5806054169439729,0.4962417521740935,A
11.256576290636998,-2.4570393766325136,-0.029966035214781136,A
12.396305533155784,-2.767541625113565,-0.5693087899802501,A
13.171050892189628,-2.9788324537318607,-1.8961199799925794,A
11.25007715425008,-4.377956261440753,-2.6227218070982934,A
9.848050956285256,-3.484606231311426,-2.6698060042128096,A
12.041135890065153,-5.264210554564209,-3.5586189583940087,A
7.926222221388141,-5.8008537317419915,-3.291138087639812,A
12.555190122453968,-4.422315932749517,-3.688761167188294,A
15.456573518814945,-2.1965384396761687,-3.6636269043350658,A
14.158681213041852,-0.6238040035176868,-2.69348177260551,A
14.359874565399918,-0.42688189603681037,-2.1139829416279956,A
11.970064276273048,-0.16972389901772336,-0.9115203312560066,A
10.306586714561929,1.4598104424292244,-0.11790892941832545,A
10.639710440375417,1.0340455066998593,0.3239486530131852,A
12.457881406514725,-1.6449176855827783,0.33254435737040017,A
12.145563847477042,-1.350348217257188,0.007125926255281818,A
13.674311582826517,-0.15123786188050092,0.08029465019199698,A
11.406814164808111,-1.0170049830130052,-1.1896491512651968,A
13.31870114293548,-4.221315999015762,-2.3039202308113533,A
12.437475341709067,-2.9373223249899887,-3.699942614777665,A
9.973618490317348,-3.310537452406349,-3.1905527317577445,A
11.670739223078828,-3.922017053265513,-3.4086267122873433,A
10.029939356933225,-5.339537385352614,-3.4549781080188064,A
9.044275249994591,-4.426249492992834,-2.846046762827755,A
13.456425380009504,-3.6823578796266903,-3.4203114948476285,A
11.993339299867472,-1.7513619939153566,-2.7314211852704964,A
14.25495712606583,-0.4590282051862383,-2.683599382659132,A
11.846099665889534,0.2903936791997526,-1.9935846545319211,A
12.469528105969134,0.589007612942353,-1.712180153578709,A
9.670703941263172,1.932500150316366,-1.4523081735955257,A
12.306790632296352,0.5003765012778548,-1.037499844933418,A
11.782679287830646,-1.580420816755005,0.5359808695180506,A
12.89989057510283,-0.9659123237960247,1.9365854586590892,A
10.798404589613984,-0.7751293246158834,1.569563760145458,A
12.110900360070875,-3.106650482430508,-0.3657405011937684,A
12.235809826989101,-3.8707201588830014,-2.250251192005694,A
11.855459879469986,-3.728957247635756,-3.6969394832970948,A
9.657669191444343,-3.177042483740438,-3.841839173184896,A
12.344748548138082,-4.274318593634549,-4.063411264899819,A
9.306317225115734,-4.562255896954339,-3.460684284890189,A
13.050862436548497,-3.59145975961081,-3.698589276765354,A
11.200123943375077,-2.250338345868502,-3.0118036462261917,A
12.650302649606868,-0.860663899402003,-2.5176598340596077,A
12.008191479938931,0.1121999373288887,-2.1545146086689417,A
12.805824944980984,0.7434974937171743,-1.724742393040262,A
10.721684856572205,2.3493291305177086,-0.9410669506504702,A
13.717987091432068,2.882920101079058,-1.665085551419989,A
11.215969222333362,-2.3739235249182484,1.3611849559931526,A
12.665039785265506,0.22425763991521208,1.9651524763372803,A
10.788457790110954,-0.9764108093774684,0.6346851341537564,A
11.50139907710654,-2.768213486108576,-0.6149019404743359,A
13.275896530940459,-3.6051933695296055,-2.53659882078066,A
10.517348581975778,-3.4779130449849127,-2.8138042757487636,A
10.309322808486998,-3.348736020536077,-2.9779135697387464,A
12.319512018198937,-5.123488160065937,-3.78939061080692,A
9.887417088591897,-4.9571501515808905,-3.452053849295031,A
13.227952406848438,-3.4964973172217655,-3.538043978060212,A
11.935870176128784,-1.4644845457098177,-2.7974283555715163,A
12.460354012574067,-0.8105168598787538,-2.1288066306609923,A
13.118972656106283,-0.1972840743049152,-2.0019296580647614,A
12.037559333935864,1.0124087838340508,-1.7270659949892488,A
10.309492381178343,2.3219833590891072,-0.33381154660738604,A
13.420041789257272,1.6855405027671189,-0.24443622432113807,A
12.026751441200505,-1.377576984010859,1.2057842294883876,A
14.980453793158421,1.775328436265069,0.47472117906683203,A
10.162603750166777,-2.5742368830309115,0.8130579820451549,A
10.443572595496269,-2.247688366411932,-1.1192600204602108,A
13.104226277799436,-2.7146804308518906,-2.63154785176874,A
10.635825241319944,-3.867446095776792,-2.8830786316013035,A
11.227347914868266,-3.2716480167435424,-3.4142787932121537,A
11.671458704555567,-5.884404289399936,-3.7727571199803185,A
9.299854837001476,-4.512751209341434,-2.926455052952756,A
14.573375482155281,-3.786484028925311,-3.718518464494006,A
12.770708345393118,-1.3301709793789975,-2.4285927301691292,A
14.213804591953664,-0.861965406460291,-1.8006216230233365,A
13.381560333247856,-0.31730445554876163,-1.3407891531895606,A
11.02117186849372,1.0723218616357097,-0.5851068726718227,A
10.049625484013985,2.1852314682575797,1.2990918077164697,A
13.394829925655413,1.8670555594299003,0.736702299968145,A
12.710081437454056,-1.390675905936641,1.2206113252371973,A
15.301597101966486,1.1862838403314302,-0.41231500056622356,A
12.510961022179407,-2.6909819739493672,-2.2756670118413953,A
12.89775031999472,-2.7190428403731164,-2.7974427517363023,A
13.512000970739935,-4.470054404320653,-3.9519656006496846,A
9.75366842831251,-4.474766739372422,-3.3414206717150323,A
9.25747716517883,-4.784752497867658,-3.3506804773598353,A
12.084585870410677,-5.839695558328765,-3.9362592450164677,A
10.496013802926479,-5.282684531226445,-3.154670180860393,A
15.007159866392934,-3.7759585104328695,-3.76310779107052,A
14.754833452143206,-1.5556362734385687,-2.886689659042897,A
14.20656234403759,0.030144342157052247,-2.0648665765050667,A
12.823884921247526,-0.452064867350689,-1.524320210954916,A
10.336741583607694,2.224876060949106,-1.4847800266735325,A
9.628268524473938,0.6749543718552671,-0.3312693129535473,A
12.663702627454908,1.6236642461027049,-0.13372136706201512,A
15.6233129706118,-0.574938306520757,0.002278156153560912,A
13.927356173503638,-2.3490211914253973,0.849027272258057,A
12.576063923311022,-0.6212414689486372,-2.2229361087309476,A
13.096842812979876,-3.575572263662585,-3.0911324499678576,A
15.181707888596636,-4.936257125159395,-4.265845646690087,A
9.909557226616743,-6.883228373618996,-4.3006806452671755,A
9.85559197387691,-4.579909005305263,-3.673852172484122,A
10.38894378618689,-5.506836004816729,-3.4505092208399044,A
12.520239412859848,-4.661093412775294,-3.545406433645574,A
16.198826464794678,-2.512991495134827,-4.153887435297208,A
13.18043991115269,-1.646593275347902,-3.111399371563958,A
14.116784759014381,-0.15300399244626217,-2.677799580260306,A
13.09157139535134,0.37289090869199704,-2.408882811962853,A
11.60027104670268,1.7602767422776175,-1.8895926540525045,A
10.644300555986373,2.39199343149415,-0.33376698239630886,A
11.219776910844383,2.960620500906203,0.6866892162688232,A
14.01931779482847,-0.47767204805220614,0.9658976386016298,A
14.744705353742644,-0.5390597704585633,0.6871150026790435,A
12.700732296131061,-2.226248714958333,-0.4957480679202957,A
14.133007551086818,-4.58965570854731,-1.1882031146170986,A
14.482287916832934,-6.622777788689229,-2.5339819653720324,A
10.049992441119075,-7.036412859353081,-3.203737848310319,A
11.756102746322643,-3.783914255667976,-2.8955962886874542,A
11.188445240368923,-5.396513470167372,-3.373089970782323,A
12.546485906682104,-2.943515255469653,-3.6685799654048994,A
13.360321460428162,-2.4951160007316355,-2.9639393658643076,A
11.917640156870641,-1.409966171358341,-2.522557331454232,A
13.10492919351793,0.07783303874620293,-1.9334983555222471,A
12.048835995399987,1.2791742795407068,-1.9052161506809957,A
10.26751381539546,1.587853172283864,-0.3355520502511693,A
12.265501583506952,2.892469099675888,-0.597825445216755,A
13.306537767326692,-0.7189735670753095,1.2176232326401946,A
12.859175060516808,0.4277974029451402,1.40990849018135,A
12.682979598500042,-0.43873780316974725,0.4772168851648257,A
10.692426061585024,-3.153400402632587,-0.36292666506052096,A
13.641566548909886,-3.658223104371276,-1.8638661267150052,A
12.01852814170296,-4.691590687851872,-2.537470589825601,A
10.360129518324184,-3.8936323445062118,-3.1084632256205125,A
12.399940623460598,-4.796410478626144,-3.6549371075170627,A
9.909216939621002,-4.795898106712806,-3.5002233077219387,A
11.376415512103073,-3.803057589257653,-3.2070138883624817,A
12.950706348086126,-2.8875107340786563,-3.358681675227917,A
11.447347139498298,-0.7058626216030596,-2.1878310855670433,A
13.05770325131154,-0.2624502848642098,-1.5883137313533988,A
11.83902799507584,1.8283681179891882,-0.48200364585685895,A
11.691114594755438,1.02483975046074,-0.6549380629610165,A
12.849611490121255,1.8307504990420698,-0.3521226592988442,A
12.31273517632862,-0.45222181298518876,0.7763497670119723,A
12.986931787217927,-0.8904897859772777,1.780246676030025,A
10.757807331997139,-0.9719040230626681,1.1573369245531935,A
10.186840602453994,-2.83710516744486,-0.16048438192839598,A
11.983463230950532,-3.897807727086057,-2.0973606369884608,A
10.657010170349048,-3.639252783587377,-2.802235109570371,A
10.139034098128302,-3.639503802936829,-2.970667752566679,A
12.711044583517515,-5.200597047922741,-3.61432948331954,A
10.991710593639715,-4.726980929513159,-3.359752979219157,A
12.120733108112262,-3.85229432584248,-3.240564598406955,A
12.592415641962303,-2.069371763146703,-3.061695521690314,A
10.41771443979029,-0.1302417518059929,-1.3882845099016676,A
11.932291351269448,-0.38546370948895314,-1.1952405321518138,A
11.436526976892264,1.1645798888210654,-1.271512152490149,A
11.167728131581427,1.6601482726164944,-0.638891314000562,A
13.418842363073804,1.3243421223966438,-0.41352564332097064,A
13.643243731452548,-0.4635580876336991,0.30500771929665577,A
11.886997777356228,-1.2129118055760346,2.1269856002416367,A
10.332758546820152,-0.8243829009162116,0.6314214548532815,A
10.450265103669818,-3.5714628356463716,-0.4800601762879129,A
12.838282419510765,-3.0722068159694866,-2.5408749768137193,A
9.892318290030287,-4.508940182090442,-2.2688534779068985,A
11.414553290920097,-3.5784987887932416,-3.0771707138546054,A
10.36956011771783,-4.733863618849863,-3.2912284146121427,A
10.731678354723766,-4.717103534630753,-2.9312701746304026,A
11.80565359228559,-3.595934328145927,-3.4374394043026886,A
12.088969067112956,-0.7091008803053658,-2.546768117675735,A
10.5178346791543,-0.8614908474007931,-1.243083083123033,A
12.381737385780655,-0.2798040920206807,-1.464466617858998,A
11.237350834857725,1.370905694825616,-1.0637577175445208,A
13.567220597951946,1.8936673539443203,-0.3699101994369722,A
11.126620650561808,2.0206931813033684,1.4663171732757254,A
14.075141080775705,0.2307824508548604,1.765700862934518,A
11.619237830864165,0.2688325817582011,1.753565456502519,A
10.342842239730851,-2.450721595154076,0.45814510536504566,A
11.649816607043272,-4.279492763870531,-1.5029481328165806,A
12.72324836417084,-4.972902213099224,-2.6368607408031943,A
8.125589178335597,-3.9904844780356026,-2.548270749026855,A
13.475107295507458,-4.798303629422926,-3.1930995280732946,A
11.376869770990186,-4.639853946234003,-3.4967274556374726,A
10.610357839083228,-3.7448839096049324,-3.01099476113961,A
12.660604521349347,-2.416890688008316,-3.0244653508098156,A
10.504761927892497,-0.671121355108932,-1.8302465201646183,A
11.65018425853577,-0.926819811755549,-1.1973154251887197,A
12.181095847977893,1.572984370376517,-1.3907985083924432,A
10.623774159184858,0.8900088713610929,-0.3071366875012122,A
12.882588896199767,2.2673696381690496,0.023886167278401146,A
14.277563147371733,-0.8411427284287433,0.48483656804313013,A
12.708624489506757,0.5626009399331912,1.7661659095952529,A
11.344496645282579,-1.0599524453855458,1.3978498981922065,A
9.837609423901425,-2.6566101011918164,-0.37338683567327663,A
12.135836999101626,-3.8788053612543916,-1.9642129068387555,A
10.570555898094762,-4.060561413511474,-2.735665392964577,A
10.23782178238477,-3.5458742718473575,-2.8819865246325453,A
10.938195208149931,-4.464439562157037,-3.4902126625399954,A
11.474477575119613,-5.027803709290277,-3.3301500322766424,A
11.922812689752549,-3.4773839377679696,-3.575533319625023,A
12.985141663219531,-1.829095611509877,-3.3795739194329815,A
10.975587703901516,-0.4529098908674132,-1.4617595231685077,A
12.052007990811484,-0.1675636219391481,-0.35357342640646733,A
10.745000979294504,1.4387157392254206,-0.3071168728125049,A
13.631354851885968,0.6924801140844661,0.032309008030650746,A
10.860449050241451,2.4111987926959833,1.1843842972371055,A
13.704591179251276,0.46014071266453577,0.6611783725904182,A
13.296677878715645,-0.30337518750033365,0.9077643997410804,A
10.33529810640389,-1.7538674515938648,-0.01220488599384434,A
9.55876140755057,-3.175691990117796,-1.0508532408185343,A
12.510064077825774,-3.6670023497408417,-2.3621996973243,A
10.182190520796949,-4.743827668717088,-2.464572820472897,A
11.006400615262812,-4.079681767328471,-2.9573084759182917,A
10.485000215668732,-4.963691649720921,-3.422071714631388,A
11.99539494253613,-4.273465346912616,-3.4463431962527316,A
12.739239837630343,-2.717463183632129,-3.3573780471806445,A
10.726647314966884,-1.923830884776701,-2.628694821956956,A
11.662463899722274,-1.0085871364478247,-1.4632142099935816,A
12.798251327783207,0.6170595326762903,-1.0067914318148437,A
11.069418144211296,1.4049610645684125,-0.047654742198418996,A
12.712602597484894,1.8995037248417148,0.1540458803000265,A
13.776187921919943,-0.4536848495262093,0.7544132066689717,A
12.720447669287797,1.4691650349232976,1.5060509729815805,A
13.88865385527466,-0.5709394109125479,0.48445748990197857,A
9.00993080010419,-3.02609131446801,0.060241044034483326,A
11.770485058129129,-2.5792087346610826,-1.7968097562851517,A
11.812911032854144,-4.761454890293163,-2.68109254037732,A
10.222354597142077,-4.307456109054757,-2.844412346167377,A
10.74113909495013,-4.8920474673285685,-3.1127373170538193,A
11.765765353852741,-5.327717129212596,-3.35819400699035,A
11.210059247532184,-3.957250554173945,-3.298575746292434,A
13.537627754269415,-2.205288325267754,-3.5822418098539233,A
10.113640941641311,-0.25828390020401204,-1.913159685781719,A
12.444749934141264,-0.8482943453622076,-1.2795577596840852,A
10.724201874356801,1.2703120760562914,-0.6483717161392172,A
12.28929528610148,1.517252860672569,-0.4389871313543324,A
11.768788029446592,0.9029389893397199,0.5822391479919953,A
13.907168351303305,1.3785266654318307,0.4281061761195771,A
13.255957023806547,-2.2917053090790023,1.4352920407632945,A
10.387847215895047,0.042329679904922965,0.6670158688341475,A
8.228236190724234,-3.0941105154295934,-0.42117381998577075,A
12.546556950363478,-2.8871469295135372,-1.9112250110466047,A
10.648518298623475,-4.2724025580628355,-2.504001082070915,A
11.416740385294236,-3.6885712827759183,-2.4417264814447024,A
12.15305716157199,-4.809559818325515,-3.296477677410008,A
9.758611221224271,-4.654940917692051,-2.911515477924541,A
11.906801921226712,-4.773807839222753,-3.4923699479148875,A
11.70980146437912,-0.6882598568157793,-2.975874844815105,A
10.259719411716679,-0.9547442585368493,-1.2238227137854287,A
12.529904510738252,-0.31603668975538723,-1.2718055058314053,A
10.281137985930107,0.8594747644545515,-0.8058446359482239,A
13.651771658259811,1.7561941743044194,-0.8454050029624484,A
14.452476653441835,1.257052296022023,-0.7018911678898699,A
11.088179938292127,0.1796175550424504,1.930256104515197,A
13.221275939857723,0.34811538994466273,0.8156306329973162,A
8.53168830713203,-2.4762432992023524,1.2275327671875287,A
9.461087800512795,-1.9102365947658728,-0.0630622663233452,A
11.314962369636747,-3.4096153008309553,-1.788304832543736,A
10.869489784131591,-3.3205899496963047,-2.0335049560700336,A
12.121036806990913,-3.602282865401467,-3.127667595819207,A
12.013943122549353,-5.315369401597928,-2.791369644824115,A
9.744859271396905,-4.297917374480297,-2.5896827590049534,A
12.719883404656054,-2.716632756673797,-2.9899125230981323,A
9.16219116102406,-0.6839382860688162,-1.5212534592251346,A
10.381049899678981,-1.2062624902245282,-0.9132215182185635,A
10.617167917888425,0.4913647934012294,-1.2471899251271998,A
11.702473645768118,1.1509166765048846,-1.1776580856688723,A
12.150191234413155,2.0127337921848656,-1.007849949716723,A
13.406690641436809,0.46719171685057975,-0.0269932208583666,A
12.552186071880707,-0.9086254652311514,1.394138423309219,A
10.729766423993764,0.19065506352298292,1.8774181145568871,A
7.517491621281533,-2.6579012632049657,0.8235028878392717,A
11.074652048548074,-4.209809055580746,-0.8213800154024408,A
11.685591655154582,-3.14581658422965,-2.319674602555414,A
10.287429693040322,-3.622553615396828,-2.291025040879776,A
12.457655254571467,-3.373651293567515,-2.9113032723557826,A
10.112768707106616,-4.805338307778013,-2.8449720624774324,A
11.40477821842488,-4.061254920849152,-2.9535604772260404,A
11.724911684490603,-2.1110252643129663,-2.8261001242143067,A
9.760801011385206,-0.7534578434991016,-1.1963694974533792,A
10.96435096541644,-0.8704891018949623,-1.183922625331775,A
11.128768552654451,1.2140064486789686,-0.9149502966182719,A
12.288489424519042,1.5716093692449085,-0.6141404955158649,A
14.782081809047858,0.8860482318891388,-0.3582976214252822,A
11.211734225958823,0.711745551567582,1.1056101885017304,A
13.2433052783819,0.03939294073097093,1.860992662913029,A
9.252289981569541,-1.2175284868748082,1.458816843935498,A
9.200470052389672,-2.733472693687128,0.06136088156665074,A
11.322284440081747,-3.640253781303882,-1.4634584956982237,A
10.551068446600135,-3.847922079154475,-2.045157157136756,A
10.625122196191652,-3.847216774181939,-2.3580851238104668,A
13.11274234285924,-4.913150485407108,-2.7488988578176707,A
10.118877100727046,-5.081677386948036,-2.801001694488317,A
12.986639516530447,-3.2618623702743914,-3.427567860614326,A
10.086719900424686,-1.166764268526193,-2.4958580671682142,A
10.87649903327566,-0.9401063088009732,-1.2530742223980946,A
11.381667267285984,-0.4864013116691171,-1.0484682489310981,A
11.671451370413056,1.1632785014390348,-0.8866987391666149,A
11.537926670379074,1.428675790151152,0.12584199380738997,A
14.037818475805667,1.4095399356804814,-0.1651426285014595,A
13.072762216452817,-0.7827818964409812,0.8115207376734793,A
12.418423748011936,-0.02500689391255056,1.1087317203648763,A
8.951685380782957,-2.3519655532515698,0.4530142483142366,A
9.94431044840889,-3.206570733370195,-0.6883936213270075,A
11.460243611790919,-3.506732045453151,-1.955419787458791,A
10.28526689503998,-4.206048286968317,-1.9787194649351898,A
11.244670657480912,-3.6752261880558197,-2.840212612924859,A
12.103501658563344,-4.812597885098688,-3.1859127147471193,A
9.657074362499827,-4.898473033958584,-2.6392558692510293,A
13.313894017120887,-3.3934976663508296,-3.1752166496802774,A
10.491138662495306,-0.6827809394482003,-1.961654097194311,A
10.878057608733348,-0.6605247408450208,-0.8153017901063362,A
10.295239229086407,0.03497783272315409,-0.8020881694770483,A
11.623522738838126,1.2905026583781647,-0.8315092562144065,A
11.446134796549037,0.8264525988062541,0.1891564222276678,A
13.05805783121704,2.4489022853254,-0.04117948646119663,A
15.45844481450501,-0.22872787945692777,0.1016919856059399,A
11.33615396086233,-1.0873224131637964,1.536587932921742,A
8.808168314051809,-1.3106330047551324,0.2515529120646415,A
10.487808809183397,-3.461396125266823,-0.8479759201101709,A
12.15728228011157,-4.3282085049213075,-2.590913406093822,A
9.319358045399419,-4.79665752810999,-2.4440827598998154,A
12.079525565917622,-3.4470689833428962,-3.120449134401143,A
10.227860337466003,-4.461145944654119,-2.928141193902454,A
11.859449526574641,-3.917316350205682,-2.916876145975663,A
12.942956690314613,-1.9258137639162312,-3.2288611678950034,A
11.142916862553195,-0.8244580878591048,-1.7715742909886645,A
11.013382428221291,-0.567141773692267,-0.9753194962139381,A
10.7910482746236,0.6512292116856355,-0.12565035805203498,A
11.404642558467218,1.561238878063944,-0.3349811330613638,A
13.598255964503347,0.5394615285536112,0.03209652048689666,A
12.717540253411949,1.3776699875701315,0.6497297018543365,A
13.87164987013665,-0.3431738611817768,0.6394845033256262,A
10.062664444404309,-1.4986174905789118,0.9342563622006851,A
9.059927277289814,-2.197545490945719,-0.5034867737565989,A
11.369804462529984,-3.46376268012625,-1.8032815620278106,A
11.273319377344889,-4.241516535799279,-2.4242683770099545,A
9.440501140603804,-3.797935831942151,-2.3890617191179433,A
13.594513806978723,-4.912966269660199,-2.9470414938248335,A
9.655428925974105,-4.8854183897123145,-3.0538729882696067,A
12.227301796773464,-4.130407717696617,-3.3963277563974756,A
12.808143892098984,-1.7333918399801203,-3.235024170884364,A
11.309176862644064,-0.6480903336404007,-1.5939629695248292,A
11.514562565875183,-0.7442066249236383,-1.0863404131929593,A
11.147991374667633,0.8388842970753424,-0.627741482770544,A
11.535876126254385,2.02212595174942,-0.28182612367718135,A
14.013350117030027,1.243902909466713,-0.2563855818605631,A
12.015892393235838,0.38519275785777896,0.816145535930427,A
13.755267166947862,-0.029301668192637468,0.7195619145627661,A
11.013582510789721,-1.9838971056355315,0.3335540943387426,A
9.883962238512803,-2.924124276265086,-0.5301712536463585,A
12.292717731786835,-3.885685304319744,-2.2415999288530797,A
10.708821997784382,-4.372664695909864,-2.4009334384471805,A
10.314733038698542,-3.518136743361169,-2.7848840225838756,A
12.770164889646791,-5.617102708490449,-3.3767109917908806,A
9.778295595166155,-4.260642669115133,-3.02294448503262,A
12.765459707253045,-3.2317275873369335,-3.3485142612992327,A
12.44425662503369,-1.2393059395562103,-2.93061304710398,A
10.96543666060951,-0.3878866549377114,-1.2142579724315343,A
11.639370803843331,0.17723918417704868,-0.7683626792099826,A
10.716836352716909,1.9330571152260128,-0.4865817214154196,A
11.780092868984546,0.7141823642403426,-0.07287928459537402,A
12.70485668054875,1.6623490529131966,0.05367085962582634,A
14.011629199856905,0.3403115680416695,-0.17569274581801742,A
12.138249523689648,-1.648565383411075,0.6366607199385846,A
9.286397016191696,-1.243015934722055,0.42379291145595777,A
9.258840871018934,-3.2679323892886405,-0.12622172148178468,A
12.387040440231461,-3.55663163709061,-2.1225742413369266,A
10.287788146119906,-4.279803261229605,-1.8997764484263515,A
11.385089998351424,-3.8569018374581936,-2.592775469808366,A
11.293130525759858,-4.653392316302534,-3.065041361948452,A
10.615848740227232,-4.870120004290449,-2.7190106147352364,A
12.782694460879371,-2.851603811551325,-3.408010061626023,A
11.706554403024722,-0.5746285914618136,-2.2188030076013057,A
10.302198639385002,-0.47804640969451784,-0.957872041685283,A
11.091335273012334,-0.2652929718097317,-1.084394287097827,A
10.960232814301689,1.8708377016975497,-0.6451070828839586,A
13.390763766593007,0.9094157083179193,0.04707834063019125,A
11.228873379574607,2.5689297829262596,1.1020715543874378,A
14.102708916927265,0.34911035359154624,0.7899540546167555,A
11.884832724770654,-0.6122029740398919,1.125132715624898,A
10.048849072950194,-1.018027854945987,-0.22944752855320039,A
10.690440558252957,-3.8454121356093327,-1.1589288634079786,A
12.24203753395466,-3.7145934252400363,-2.1979871068330032,A
9.636969273076563,-5.04790720813519,-2.198796431693264,A
13.215848128819841,-4.725186292608634,-3.081592191230795,A
9.983487627060592,-5.516464755392515,-2.8360712189413757,A
11.661998057926692,-3.4532489108567277,-3.13483133007416,A
13.585721140830975,-2.907987171207047,-3.1962317247195116,A
11.62102865440372,-0.8320102346592588,-2.4613491174786537,A
11.539378276778248,-0.6569786819166836,-1.4695050475529543,A
12.127240077282549,0.7960796562424736,-1.2428366975678344,A
10.821697197397048,0.8377573042737176,0.021022062989837182,A
13.285658530477201,3.013365736570003,-0.0652844260609468,A
13.259281864775746,0.5610503366364555,0.8188461276013395,A
13.649055666963141,1.5686670252815569,1.0418379039988845,A
12.56302474604129,-1.868883645333209,0.23206020191785448,A
9.91441226152166,-2.5619335690552756,-0.4774249186470006,A
12.797294584879383,-3.986529013395204,-2.206596505263168,A
11.648363003331468,-5.074237712448528,-2.322278729838147,A
10.429924448040163,-4.146374151639654,-2.8845321427124437,A
11.449473285040549,-4.805445368523183,-3.4354988021203474,A
10.24139542157921,-5.720931928470892,-3.606993893954484,A
12.5521575731522,-2.9896041309831376,-4.0224578782742775,A
14.537721883207748,-1.6533303793009406,-3.662984438623436,A
11.596490827394835,-0.4504455239184649,-1.7694223918864904,A
13.576449826235065,-0.8474934951310534,-1.5034532457192933,A
11.090913423409914,1.98081684658066,-0.46088312856954305,A
12.79986840463353,1.4441180649789775,0.5797161906317683,A
11.665281499852094,2.4524785386141152,1.2988266818326921,A
13.322792310536096,0.8622304601355416,1.0951974439283685,A
14.503902528210896,-0.050203457579337044,0.9230352544661102,A
11.087543196561727,-1.8989831685790024,0.5265229040926296,A
10.428181316285253,-3.1245259361687547,-0.8771964219084674,A
13.53829189830782,-4.905353942777288,-2.1458842437732133,A
11.111057304929748,-5.424111274015646,-2.5778650247887747,A
11.43725825069381,-5.6420438349775335,-3.5682530288154424,A
11.117750595828728,-6.126752515166183,-3.770366140092354,A
11.09210252894358,-4.409024300943219,-3.2049173091047085,A
14.75859672320682,-2.0733677406398705,-3.6451423158959257,A
12.2251766090076,-0.5678009699829156,-2.5045969044791097,A
12.01212882425269,-0.5726031271197949,-1.7702379521982738,A
12.510103586042673,0.9403868799770164,-0.7054582455188482,A
11.94322614433792,2.3719382152023925,-0.08445658057879585,A
12.045671915268807,1.9225993078933354,0.17014363193217077,A
12.9015795675893,-0.49673259553103427,1.0178383280649657,A
12.63061454610867,0.16760106464377653,1.2500787140570109,A
13.632610055163653,1.1520321208534368,0.38938776633822464,A
10.638331272083143,-1.9795716532985153,-0.6301775845333537,A
11.702070963556809,-3.0856519271423504,-1.7270351990779336,A
13.189573868841325,-3.7462068523447867,-2.5829070637794005,A
10.047784476250648,-4.290307753268519,-2.6794161828429783,A
11.808462157452409,-4.824903619022413,-3.3403664093251635,A
11.178573357891365,-5.258341473336455,-3.1478905140399513,A
10.609992958561532,-3.2504599106541106,-2.994637716625009,A
13.957850739987038,-3.101156791206853,-3.292676746407685,A
10.750239302940663,-1.057214793655919,-2.3929333335613685,A
12.688060174507356,-0.6345358796967697,-1.9579294178547446,A
12.123249751053995,1.2893934748618923,-1.661789902375248,A
11.802874928753385,1.0097638335023196,-0.679287725236815,A
12.348300592070059,3.7392626380869713,-0.06775113571060952,A
13.730384450021315,1.3129657898545897,0.4677729664735017,A
12.110460548946893,0.5477666237907339,2.04327540181549,A
13.822347913884784,0.9298842094019952,0.3917440012345843,A
9.424338926963227,-2.9966056168610335,-0.0039046515206902373,A
13.323340059366945,-3.122304675834649,-1.6400930306842032,A
11.520761125270226,-4.455659634412927,-1.9470227535499793,A
11.179328641811283,-4.486544153124369,-2.3385104638600716,A
11.887778491511021,-4.7719330142948335,-3.3099731457796633,A
10.362076275535017,-4.9004013863458376,-2.9525357084817716,A
12.21387816647023,-3.328654649461213,-3.1026908339850516,A
14.292993734820106,-1.914619201854114,-3.2602109037589244,A
11.44918749320993,-0.34775202357330615,-2.1612253420675085,A
13.386521989841196,-0.36704130398696544,-2.077949765682468,A
11.370715267904862,1.6670848968856422,-1.7344609439247272,A
11.313728716241759,1.7035396497197652,-1.0239947254071333,A
11.799331777396652,1.7352058060413074,-0.3392737667515099,A
12.469953087387626,1.668007649010179,0.5053208891388132,A
13.812229530227047,0.24330080202523635,1.417403125181293,A
12.074000425173363,-0.8108322373922987,0.9828415022191579,A
10.652459875654523,-3.947943204102779,0.16533442590743935,A
13.339902313643975,-2.76330417007617,-2.01229742484939,A
11.92771082826146,-4.023914739528339,-2.1566347286043905,A
11.577562188509567,-3.897933756407948,-3.1277312283631424,A
11.403714227152077,-4.651883676927567,-3.5130498034740363,A
10.457899658078215,-5.265648295104301,-2.8711415595007193,A
12.544596287661243,-3.701944544754656,-3.2175436660260304,A
12.951011481962166,-1.8881163722834284,-2.976542423545575,A
11.12771272067172,-0.6478687275542441,-2.217311539977398,A
13.59464658633966,-0.5701618558730086,-1.9378417042242337,A
11.559892546481379,1.4593566642985851,-1.2388745103022625,A
12.038722613306007,2.2382085675558794,-0.7723845617257821,A
12.438745970996761,0.5408151536352361,0.011060712668085835,A
11.279029151058237,0.8166568870554403,1.2208728681766574,A
13.399446504472731,-0.05165282963099711,0.8691536737770763,A
11.149182933762695,-0.9480868163526531,0.9260439209351694,A
10.39518648355686,-3.0718778061511194,-0.14693324916303435,A
13.08269604051368,-2.6647980500489,-1.494213951446744,A
11.04270880688567,-4.417743310399369,-2.365904769425799,A
11.722605861960211,-3.8819774528468907,-2.4669041008342205,A
12.088792064020653,-5.271659665470723,-3.2307028373344857,A
9.60026015606351,-4.828014915605437,-2.884753353479766,A
13.681164482149505,-3.174174048239239,-3.3263857713436873,A
12.972591732299838,-0.9441981601086751,-2.9073280954255547,A
11.758036990533789,-1.1099758727652607,-1.9033539230453014,A
12.492849494862005,0.4807026710861546,-1.5206003064355704,A
11.709689774865913,1.2196789235891143,-0.8450339982011659,A
11.363052284200299,2.7148671720071023,0.03356592429127787,A
14.565994035891919,1.7739303180294557,-0.4086254732834691,A
11.815757426879049,1.4386256676663214,1.222451032302783,A
13.492378913610054,-0.100012532363126,0.5724912873419398,A
10.565548600415205,-1.6978143273772126,-0.16728184624654882,A
11.319694170597906,-2.9823361855062696,-1.4283392230559622,A
13.622123208531239,-3.58258527093962,-2.033025066537566,A
11.403211330544687,-4.568081631158898,-2.4601270501253527,A
11.677752361489683,-4.619657260008116,-2.7307841098666428,A
10.786703579753922,-6.286060909938388,-2.973555486558545,A
11.395010236305906,-3.8313449250230907,-2.910489029543609,A
14.020734387783193,-2.4206436734716776,-3.1394809608942706,A
12.01966796935707,-1.013681939263716,-2.4884976907054885,A
11.985124021462383,-0.30078026265589386,-1.8942844378835415,A
12.956035601746693,1.101835798767055,-1.8417064270285701,A
11.847705858844048,2.904273918728651,-0.6550747614966113,A
12.901678808342693,2.5268523653006087,0.5636885946082737,A
11.449900004493967,2.754928419334541,1.7404002664200207,A
14.390362341843305,1.8339140726849505,1.3773280541001354,A
12.979235188035602,-0.20855675388503528,0.8830065207951289,A
11.17709955768477,-2.758701580061254,-0.4399021384470517,A
13.211452583069056,-3.29440056417568,-1.919809362736686,A
13.20606048287988,-3.7545438072244317,-2.9284399317430574,A
11.682949145751175,-4.691612040533634,-3.0987550134289936,A
11.558200455460751,-6.360963069608308,-3.4047576080686133,A
9.964049753354052,-6.619229594944666,-3.4805532521324345,A
14.465614612135303,-2.2429562132824756,-4.340294695707564,A
13.357175302649829,-1.165651728222826,-2.3821589074643046,A
13.149676054100228,-1.029796287301627,-1.6860528063314575,A
12.41389160669851,0.7496763122090143,-0.7046149398057243,A
