accX,accY,accZ,Activity
2.4246915386587458,-3.6105262001348026,7.756444721725796,A
0.029469798788251306,-2.7269473544313247,7.9319875833129885,A
0.45424140999292995,-2.2245867108879938,7.284172711291574,A
0.0020174521040595126,-1.802460236474132,8.03733819915026,A
0.7330531795174257,-1.0348950501387024,8.628257775163785,A
0.7081970160061835,-0.8789602397780986,9.055193871786823,A
1.1111350664023896,-0.2990751105549192,7.2714456039337385,A
3.7369441042850164,1.2710223541661378,5.414675024567783,A
7.847603140706946,-1.4700575971659453,5.754286173986745,A
7.881863082123864,-2.9784395243894557,4.763010271909507,A
11.228782684342445,-0.7770567801488328,3.743398021107545,A
11.442106974469006,-3.7709944297561773,-2.352036311052735,A
10.225463444709828,-8.846526487310392,-2.350261730164084,A
8.774963004601135,-8.349091451798932,1.0157178405524672,A
8.915889098164197,-8.247436208733495,0.30320926450935237,A
10.253936358470433,-6.9224170477996,0.24610617166747017,A
15.046415963536923,-8.009944167671813,0.3685365724488584,A
11.767202642499248,-8.068737569727901,1.0537973347416354,A
10.691033058918318,-6.4126681593333235,0.2949104816317878,A
10.612343876178791,-5.427694678250738,0.4474428093145318,A
8.958257374496645,-4.048583667017709,-0.33358673803141475,A
8.111317710361837,-3.30468172008654,-0.5591222719791911,A
7.2274174899322645,-2.3839087865286657,-0.8516521680458209,A
7.353610267263903,-2.0524909712934183,-0.8459768720015997,A
8.063040197647876,-2.02297803250913,-1.1430318551152632,A
9.785580737450267,-1.9976379842524796,-1.5933680102061034,A
10.626006252531688,-3.7803577041926313,-0.8582789184236614,A
10.14294632346086,-5.564215438464827,1.8994032148617537,A
10.963487957226695,-3.8698004254530285,0.43940203304507774,A
8.25914542613789,-5.0154936329660025,1.458944948552923,A
6.656742960761928,-6.046254385203597,1.4745557234176123,A
6.0275375203005055,-5.6034738025935305,2.2475177984737367,A
7.486080122704677,-5.502143378968665,2.3506368052558346,A
9.111429591326782,-5.497856672846964,2.4662403641325152,A
13.312282161258949,-5.269773276994757,0.8304133670442655,A
13.334597410970005,-6.253223065742569,0.615950682635459,A
10.779312424325486,-6.21393430970496,-0.33322910134838435,A
12.062180494579957,-4.635272894569923,-1.2114531439174112,A
8.552908107937707,-3.3290670845418155,-1.2471421482953435,A
7.214380203197284,-3.554157033654185,-0.9244492119922811,A
6.362939032257026,-2.748031190277767,-1.290880215256544,A
5.950844044713497,-2.053159821929481,-0.8841304060482866,A
7.011745579838363,-2.0395259229255553,-0.8881821653422961,A
9.54485592317311,-2.2851136800326044,-0.3540984275761472,A
12.773012680234018,-2.7125178763516673,-0.27093038992858703,A
11.697879922357817,-5.813601890191075,2.0429984724738524,A
11.101946346786775,-5.88100661239336,1.343469966933096,A
10.417506418496847,-4.726581097874366,0.8480990707693107,A
6.180738942115774,-5.502362753371921,0.8660634224580323,A
4.343313873070464,-4.857308116734747,0.08966403550515561,A
4.715057826462205,-4.5140843064365725,0.4291287961888253,A
6.543447743992935,-4.9524582412064335,0.573573556346257,A
10.2008862230827,-5.512576627629981,0.7044522152777354,A
14.86906759577351,-6.225426537943935,0.0332501788729449,A
12.28174343936558,-7.113887778838272,0.12494050409699105,A
11.19793772358552,-5.653068186328241,-1.0219875567125438,A
11.20048307471652,-5.156092222694788,-0.9381018978984591,A
7.849208071418286,-4.13050462017542,-1.2576295510914368,A
7.874117002120595,-3.5964794988947233,-1.2455861943555084,A
7.187442906178493,-2.2614955165119235,-1.5421934087116693,A
7.929608774356071,-2.0890030704424674,-1.223116971000687,A
8.684002298205497,-1.6713053175022414,-1.640584330018535,A
10.095539556112161,-2.248281093474464,-1.209352274013757,A
9.351217965892966,-3.1625085514695446,-0.34282318393154576,A
9.42060892142516,-5.148822262747881,0.5807429048874914,A
12.016652342854144,-5.7546294896810615,0.6202909060930795,A
8.866209453884995,-6.564953828599812,0.8540605154066168,A
6.325431320266019,-6.853390273527267,1.0022392624884382,A
5.214922535741093,-5.910590917200108,1.231040836191938,A
6.470736210698289,-5.5022424954487015,1.5949484063236283,A
9.489032815723359,-6.719011796934645,1.7092546853400563,A
14.590633051833453,-6.846122329081573,0.10587858816233849,A
13.186418291115096,-7.999156328713325,-0.8274956911581779,A
11.072716199545987,-5.488807325876127,-1.2134330284618147,A
11.624531270663555,-4.821838030636598,-1.9745104267360614,A
8.755042486637514,-4.134751208965967,-1.7832233765975365,A
7.373313562712396,-2.9919931205995915,-1.3268167708138698,A
6.590295721576466,-2.6432671931500247,-1.3624307442622792,A
6.793527278591187,-1.8395060888464603,-1.3143052677658225,A
8.151707206143993,-1.9200719352663957,-1.4062339008220164,A
10.24108408506914,-2.085867230520289,-1.4090438187917682,A
10.817787240572683,-3.3419617601936134,0.047007485133636936,A
9.57463715474604,-4.234209301382802,0.7368775384347774,A
12.697016422895032,-5.145935871921268,1.0369167919150877,A
11.31611368669823,-6.412730372213841,0.9509407727405924,A
6.962111768419955,-7.711173502666046,0.45252116086151634,A
5.935411779799254,-7.1808005896849085,1.0860500103745696,A
6.152925936754208,-6.849538799166687,1.3474426092285423,A
8.445599065203442,-7.383877335537945,0.9232328222674122,A
11.107600307927463,-6.924085565006099,0.24431920887990366,A
14.855415847530868,-6.515432236384453,-0.5590980784348687,A
13.012514846825225,-5.50560514305442,-0.9245329003409399,A
13.869991406678665,-4.5674989410975,-1.2144434711941292,A
10.964340989154396,-2.8582174916655068,-1.2169476135413386,A
8.176724378053075,-2.7567984555157468,-1.281728995001691,A
6.708686700243899,-2.3883397354148332,-1.6325901302007073,A
6.415874709530069,-1.6470872255306017,-1.4174884933499858,A
6.461064115605791,-1.5361839232880872,-1.369816420743315,A
8.338082648559912,-1.4318130200864436,-1.2247482553399145,A
10.759579351193935,-2.0881420060584044,-0.7722398138488528,A
12.613066983188869,-3.6112622185173793,0.037958107856464626,A
13.870202642818976,-7.590619921460732,0.8914776930726251,A
12.911611160546222,-6.519603451767161,0.5513956037946567,A
8.421866227877471,-6.121520721232743,0.6256635300314626,A
5.935721103140525,-6.003646587418794,1.071682686223925,A
4.609042058417277,-4.488404135574071,1.3467702162937305,A
7.559115689252835,-5.020080109901167,2.0835331396471366,A
10.317205284211418,-5.110573465004649,1.6508374711248461,A
13.703398563129078,-4.467808734292259,1.4696258768124002,A
14.529908696832019,-6.029131448752929,1.7011770519373801,A
12.087043823443384,-5.060704191618518,-0.3461108935407026,A
13.195863660725974,-4.698342236760371,-1.222905813346526,A
9.016407023359552,-4.227985650305098,-1.7571957286070436,A
7.938437233465627,-4.026451692484355,-1.9214556251035688,A
7.494771321483249,-2.728244239592141,-1.906596687759442,A
7.339413708843399,-1.5488986554255186,-1.4347521653365203,A
7.511191656262227,-1.314500690217878,-1.165800869188393,A
7.196021622219066,-1.352544146799414,-0.11078750873749173,A
9.123689783075518,-2.23992647379479,1.182688580797097,A
10.840246578237243,-3.0971693953083133,1.583391032891777,A
15.229994718231191,-6.267136776569571,0.9993521543065742,A
12.405347522452907,-8.699812097849676,1.5563856313793254,A
6.529342277864505,-7.010484955532803,2.396164442021537,A
5.8630162979003515,-5.869810777503227,2.1709987492851535,A
4.90590584303833,-4.778542436406467,2.3911654413647505,A
8.073181959852866,-5.49545190893821,1.9229619950590064,A
12.137783086524317,-5.635963112269579,0.695392941923639,A
15.19858308361917,-6.681563063748094,-0.08956697615312172,A
11.227872336167861,-5.876222228435656,-0.2173682377118349,A
11.406821563748032,-4.78802068661119,-0.7723069943876335,A
9.898998304029636,-3.578754515499747,-0.702316593656738,A
7.634678101600379,-3.2195199318628513,-0.781712233996155,A
7.057228371895336,-3.191269210827661,-0.8799691887234158,A
7.345219828833646,-2.5587007577749112,-1.211646810453682,A
8.33780297686362,-2.1290929800176666,-1.0068829973074613,A
10.177159978613336,-2.2483951219016163,-0.630443536080331,A
10.9292595189651,-1.9854874039463573,0.480410955164282,A
10.082034067572222,-2.672843250089048,1.0705525665123823,A
10.44514943881719,-3.709495602992272,1.627849843151607,A
12.754959172980357,-5.704635380567713,-0.5908449592573766,A
8.364994170292567,-8.513092328572155,-0.0010681901446444506,A
5.9766400335462375,-6.895956727478695,0.7882607971891016,A
5.28914475993598,-6.129595464029325,1.4386655335799288,A
5.299563948437768,-5.147209741820081,1.7340683323900103,A
9.583892112949606,-6.06903605544914,2.0955847952385502,A
14.174699312736141,-6.98086283083428,0.5301495836534168,A
15.037165101543573,-8.561562555082,0.13043633718477046,A
14.994318611695697,-5.280425132323227,1.3548132603057437,A
12.078620353587871,-2.2367384558836725,0.8753036014894319,A
7.342205602673757,-3.4929740509015788,-0.7798829193150084,A
6.581769724828099,-3.2133082954984356,-1.4460719379123397,A
6.186470210562986,-1.926261440780837,-1.208392922802702,A
7.143302698749618,-1.6273957431308987,-1.2097650152170274,A
7.695878629992082,-1.672904499918477,-1.2073836039923078,A
9.688009824865048,-2.732064713430889,-0.5265230601306584,A
10.445038645473595,-3.8444286323030235,1.2322444811518816,A
11.899675436186087,-4.677098649732904,1.825916904037133,A
13.113078732089669,-5.64162567697776,0.6975176256721443,A
9.152495827947623,-5.5512303813704165,0.9430621904796163,A
6.429338204586445,-5.448485622201533,1.1297768235694765,A
5.22250941441436,-5.786494206931969,1.5665223157305899,A
6.563849504719382,-5.710905356502948,2.1789988632968287,A
9.178608445466566,-6.543792698221758,1.6470609628828496,A
13.085664748663957,-6.5579187496967,0.8346382708063574,A
15.532287825230581,-7.012424538943759,0.609004158043956,A
11.48591636399572,-5.856468790209764,-0.1303306551553538,A
12.850832684687774,-4.530129714896535,-0.555836611971977,A
9.782600846952993,-3.1321274938774635,-0.8958459506885538,A
7.324288831428608,-2.879988465158364,-0.9908288013560604,A
6.4374568814682975,-2.6430537201662307,-1.107529926645796,A
6.356254193963526,-2.0348548753002103,-0.9956996139712188,A
6.882953549097808,-2.0689119750620693,-0.9557619895730837,A
8.738104055011963,-2.0352063234207507,-0.5296528690915775,A
9.27783212773091,-2.498558006833536,0.395607295844282,A
12.198497217671374,-4.1405129900030815,0.8283695034848405,A
12.582543774003717,-9.108922217759138,1.1115055101654716,A
9.989164011456984,-7.761990119736172,0.7395025003529552,A
6.070021355252018,-5.2227166363818025,0.7075674823802384,A
5.139269160163033,-5.323856289481972,0.3146908732200848,A
5.3455845780459015,-5.672291115300513,1.150034186014909,A
7.980385616633841,-6.011078870547276,1.6374468921706997,A
9.610085252419417,-5.882837376238796,0.7641134082325904,A
14.368515598320077,-6.475102679679825,0.10113321988733631,A
12.479602355769146,-7.741760352935538,-0.6690536153379871,A
11.918026297483264,-6.022573711850347,-1.2316422153586375,A
11.390224976687469,-4.224640535336862,-1.7465755193741779,A
8.35019041287343,-3.7068757755598627,-1.5452315658678843,A
7.443627913756199,-3.046404532363091,-1.4427779352324155,A
6.585313936666212,-2.131197537643478,-1.9096877332575677,A
6.398643070203757,-2.432359567400927,-1.633003012534864,A
8.68757044155444,-2.223271111260352,-1.7089800175492251,A
10.623352644095036,-2.663723499320639,-0.4859173225899815,A
11.313160147905812,-2.246000747963578,0.009730361554393793,A
10.44077020003943,-4.167536280280713,1.4076008217143188,A
11.053874132773073,-5.058747280668047,1.3352782464902857,A
11.522501871787512,-5.548077928670729,0.5578335387124757,A
6.835355685509024,-6.812829583974626,1.2687588344967224,A
5.859364778511876,-5.717929194673893,0.4563088436781397,A
5.0547538481251655,-5.36727722837184,1.2283415927948707,A
6.815434479413708,-5.493870525015833,1.5953895275008523,A
9.414716349979463,-5.7792762388538295,1.3694073968313982,A
14.537837811859598,-5.61153200035676,0.056280437124827845,A
13.93716146417939,-6.2785682846926365,-0.48812427110615925,A
12.563444280851924,-5.202961654402248,-1.0699679265187465,A
11.214420883799203,-4.163832645923059,-1.3150840573945712,A
8.394312554384582,-2.58859264271335,-1.682716313266363,A
6.410776101222287,-3.1162939267295444,-1.273350616929128,A
6.623263316085259,-2.572070171543979,-1.5777378835802909,A
7.262411489621151,-2.5821142304534224,-1.6319629485263611,A
9.205479926663898,-2.431756841206912,-1.6207324270886236,A
9.3551574785964,-2.5058587219166615,-0.4739069055364038,A
10.851072208930546,-2.711775116921144,0.5106632100895223,A
10.347522876093933,-3.326040150702423,0.9594462559918514,A
12.895758107084568,-5.1900776223407625,1.4566633269496334,A
10.044381438789125,-4.819731625857031,1.345918105525037,A
6.41025619443733,-4.86732496625352,0.6103442434449255,A
5.9245876236296375,-6.013136768011651,1.0224096245744982,A
6.155816140917036,-5.6917867748568005,0.9433980864809819,A
8.516387651497796,-6.561703177761725,1.16075605257008,A
11.276150713945917,-6.810969738374607,0.32586807575760335,A
14.999093983493644,-7.476470719278675,0.8568070224282137,A
11.857293215676172,-5.511472779655377,0.4035278274032359,A
13.508297518238875,-4.546336622047188,-0.864008440099706,A
10.83799124194786,-3.662893492942436,-1.908587512054977,A
8.593186559615004,-3.7232010006090266,-1.904684021663426,A
7.624085931101693,-2.7081368713107605,-1.9403883567722375,A
6.664930054031103,-2.0829357479826336,-1.6979637687890987,A
6.602730068412936,-1.6871408966072197,-1.323687748212358,A
8.275698578540359,-1.725191425355472,-0.7903774263052661,A
8.899986956040928,-1.9272308757760168,0.4871287090195148,A
11.634695682481068,-3.006323816217325,0.8516583534368766,A
11.75471086928079,-5.93104458067567,0.6098203198484354,A
13.466387234452462,-7.267158476218121,0.20261772746927084,A
7.942811861979042,-6.088165753844947,0.3123563843667101,A
6.176692971259946,-5.760455120853184,0.1461711273240838,A
4.408111074622915,-5.553739473635467,0.7851100013152805,A
6.651913963625131,-5.528903443750406,0.6256328683333758,A
9.453897687256195,-6.633418627157224,0.9848807781642398,A
13.109755545427342,-6.71268165113345,0.16269205407852863,A
13.480718133326,-7.077149639122286,0.1222735456390305,A
11.56121175788359,-6.175919899691243,-0.13173700732047253,A
12.894076220607543,-3.805126185854327,-0.9634389463504999,A
9.50646637407632,-3.5640330327907925,-0.9333654733488177,A
6.688603085952967,-3.3866714539325673,-1.206839241071799,A
6.560479716959719,-2.6368169652770206,-1.1751171615359073,A
5.362220091283003,-2.018618810455577,-0.9553139731927344,A
7.45501863604584,-2.3572891634442037,-0.8672415306015149,A
9.107630722278662,-2.148363798693894,-0.5622699572106177,A
11.118454393560292,-2.3560270227803883,0.12485438825266877,A
11.352002208216042,-4.606881799617915,1.0753269095002462,A
11.107787076713231,-6.36423216153928,0.6904032895159133,A
12.879911163678585,-5.935040441701091,-0.08538983309853823,A
7.491136972413995,-6.349039576582847,0.34552684768809017,A
5.603289563598192,-5.456657367159323,0.2516343417136534,A
4.788016520374691,-5.524627184345093,1.177045367689752,A
6.494972982827703,-5.826623043996182,0.7901065096805915,A
9.863776357067351,-6.7789234221319745,0.6936244161021246,A
13.988022877757917,-6.880450074104866,-0.01196128930521761,A
13.05717070577351,-6.768574919889393,0.39961565005870914,A
10.883863376344594,-5.523630036043292,-0.23854166824138767,A
12.961956726071705,-4.2721563501481645,-0.7773369864850187,A
8.827030075822252,-3.2754059369057624,-1.1435622508141041,A
7.001649686827207,-3.62282091904953,-0.85047504589796,A
6.313456713035124,-2.3285775642399718,-1.250276723734017,A
5.597598382822222,-2.220779655627644,-0.6059568040894927,A
6.604679266380903,-1.4930765760907956,-1.9034561658788904,A
9.11827044347825,-2.1901787409242064,-1.107950923239836,A
12.37742554016927,-2.8953665461172284,-0.6069904606773545,A
12.040305420325508,-6.177005252270856,1.978072183466668,A
11.642107313695647,-5.74642249448503,0.5415519787830586,A
12.389757409744234,-6.60955287220109,1.1937960495374618,A
6.636874258189898,-6.5682450513053015,1.6206357460393868,A
4.826093770393259,-5.033912686208461,-0.6704047123136796,A
5.265695290343032,-4.245665724760172,0.8247603858298025,A
6.95394029142389,-4.666532431666637,0.05499482556809472,A
9.566099151348146,-5.8360314973756875,0.1325709397403541,A
13.704157310623541,-6.68910178938836,-0.4330023150935645,A
12.842858458128113,-7.92880117453601,0.2661811787025134,A
11.216991212607695,-6.351135044778471,-0.9457713895182075,A
12.592966632455948,-5.327787243192431,-0.736554879980158,A
8.696477730131875,-3.6815445213141986,-0.89389355915722,A
7.35720132667425,-3.718027542060491,-0.9633938494059392,A
7.03235776979842,-2.2348490582491642,-1.2381960967037398,A
8.205227432890046,-2.1039857312063863,-0.7577603064562144,A
8.499495361541783,-1.8528743769217018,-0.8334121911874077,A
7.856270986758258,-2.1811351197033875,0.33761258158897484,A
9.467958867055966,-1.71080956561454,-0.04648497220122498,A
9.902648145169087,-4.551241247970932,1.0647923580112817,A
13.135095507780159,-5.9470870458636895,0.6332349797371175,A
10.210323522990494,-5.602543044204265,-0.24914004619050234,A
7.410771969219659,-6.0119524303348415,1.0596393438313536,A
6.274954920809992,-5.755285901720553,1.1245016876231373,A
6.457433400703782,-5.793754707791042,2.171596952895235,A
8.576465450353568,-6.3253912308794416,1.5772175530598391,A
11.072830378329746,-6.272484832689268,1.131680809416652,A
14.702146708084616,-6.437480462380747,0.5029709836745914,A
11.907057199632831,-6.5513336310619765,0.5795188348101633,A
12.033274373003001,-4.91703357553626,-0.7151863679489798,A
11.63584981810409,-3.4350230241385504,-0.7748548032983305,A
7.0765494771568065,-3.1145877822980808,-0.9518581838535408,A
6.422629662569938,-3.104370695877881,-0.8912253723413596,A
6.131498355692809,-2.2392894527967346,-0.8770690221244776,A
6.853360829974932,-1.9184770669651863,-0.9159854396332273,A
8.45468017858475,-2.181257812001142,-0.7554004258714158,A
9.991116678724895,-2.183566689638346,-0.010982116508770921,A
10.858741573222957,-3.536017202168253,0.5036349125491685,A
12.164892085888454,-6.494176674775099,2.0332207247177645,A
13.56256530474671,-6.069996699555416,0.6634092367920419,A
7.898279921159046,-5.498457760530688,1.4062816142296948,A
6.281089231179285,-5.33861729547003,0.7059011650087598,A
4.6157001642306446,-4.971018613197568,1.290133639415155,A
6.763613376905124,-5.011842774388019,1.1562700771820578,A
8.296016688387967,-6.130032866041824,1.1261791782965778,A
13.240253300165927,-6.518410071770347,0.3977489424401189,A
12.840829922912953,-7.388121612292804,-0.22192656446514347,A
10.611810258152191,-6.3872937334059,-0.34538739979132443,A
13.377287663252066,-4.920416847806726,-0.5014513124328092,A
9.475029745629794,-3.7484165478898905,-0.6490729539021174,A
7.464999315693243,-3.5929063123389806,-0.6283381102684369,A
6.596299118258212,-2.831295269896893,-0.8421436040440557,A
6.329844124194889,-2.3787552094616022,-0.8236101875597278,A
7.355310332040246,-1.918264695207826,-0.9595637131765167,A
8.267922725361279,-2.223137323101368,-0.31456505003629626,A
11.093666462109947,-2.64491329014591,0.06840346148264846,A
11.38492014274246,-5.144321946233126,1.364502478980269,A
11.853994097316455,-5.9900611838240145,1.078128232071754,A
11.121807002339654,-4.838369199639967,0.8896836211294658,A
6.50836457195469,-5.469482394868768,1.0994071701278318,A
5.459618392594173,-5.399201953069687,1.0783350527725093,A
5.507131812689724,-5.118403933937166,1.6242772985061422,A
7.924859629540288,-5.695596012836145,0.9706746115425674,A
10.54651502351021,-6.507973239713583,0.724489292963476,A
14.826248860111457,-6.575559438827516,-0.26411295074398783,A
11.551491983704684,-6.8606326434562765,0.6119214864620451,A
11.622166487484627,-5.437997764103656,-0.5738295724953705,A
11.413381665565984,-3.6940129964927717,-0.6589972246906596,A
7.77040207844998,-3.135295119219693,-0.9726587929591226,A
6.723380339409018,-3.3407678204551274,-1.3351163257951022,A
6.3800744719363225,-2.549695697479949,-1.3107759117759308,A
7.244951116306989,-2.2723088351179555,-1.2974417515830172,A
9.08440205256621,-2.031645299292523,-1.543933799341686,A
9.649784560177604,-2.114156791402818,-0.31977012834938146,A
10.60420022974673,-2.889719977690287,1.0327824176928784,A
10.530011507755244,-3.7851948604520786,1.0653403637810885,A
12.889132136262655,-6.466844002091879,1.2968993455125193,A
10.535839669438651,-6.248044661535022,1.0253854021103976,A
7.1531202072612645,-4.790481611711931,1.1131865253628177,A
5.307019945263505,-5.467151782943847,1.8163178296557962,A
4.30193375202414,-4.328931941378299,2.5057757495532065,A
7.431411868732771,-4.993444753574002,1.5376406046380453,A
12.052374853887997,-6.691889489231571,0.029688774148884108,A
14.5486552501095,-7.455599814608959,-0.570731514163039,A
10.778319310489541,-6.57627909507889,-0.4314223192126499,A
11.975590891146773,-5.2270967182639865,-1.1330120964565757,A
11.106356544976054,-3.788928325829499,-1.0203383495371376,A
7.899885431547759,-3.559906676808919,-0.9509726373153558,A
7.071187477956319,-3.446444612890046,-1.0619275503385908,A
5.939201506437067,-2.380002981604267,-0.7579693479261418,A
6.446522126888474,-1.962659327984027,-0.3784832834330583,A
8.356537082780452,-1.8931444325243036,-0.38177018154568443,A
9.72031703965524,-2.174970650862129,0.6023264379661324,A
11.5944836108404,-2.989665012729861,1.057387616722238,A
13.111029835102222,-5.889704175772841,1.3190035058159817,A
13.203991885139331,-5.9728452930419245,-0.1216723815139206,A
8.156401759991677,-5.867748984400688,0.6004086988599251,A
5.563126639810843,-5.389517548732927,0.30809136843507834,A
4.685283099289889,-4.7264959028640705,1.1019602321646742,A
5.5652861007535686,-5.263670994465405,1.1870131486818787,A
8.50556520900381,-6.428824610379962,1.0985986725466554,A
12.563276847099145,-6.776491344444681,-0.26728480506024815,A
13.566935658776234,-6.631196564340136,0.20482994331917778,A
11.469745434219913,-6.187511894551006,-0.021099249178884286,A
12.167161941386425,-4.331502178732039,-0.7267953071764014,A
10.41533280515762,-3.7755680533811664,-0.45880185542564605,A
6.957970717354318,-3.389750485025151,-1.063560976215066,A
7.016239276710897,-2.5335335329856967,-1.1049075408528697,A
6.252848140710834,-1.9865398570237223,-0.9527992870739803,A
8.561338167529003,-1.8395547152502496,-1.2821898495574429,A
8.835397696705128,-1.8582275220298854,-0.9613608571144149,A
10.610011979769553,-2.4642365698770936,-0.35403432069447804,A
10.312935780873353,-3.8080724139023894,0.5514539997635551,A
12.193935783780383,-5.913999761964555,1.0338737294869553,A
13.412227222953115,-6.29084776832417,0.588099291564722,A
7.175837801333831,-6.055365745342433,0.5987760438383597,A
5.856314290908369,-5.690413100221759,0.4668933963912955,A
4.56710038172116,-5.131983194509105,1.0269951515631888,A
6.913486889548979,-5.374537101045705,1.0789464303514338,A
9.139230111290058,-5.700008513269532,0.7271961892729786,A
14.214779543010033,-5.82158520250644,-0.07549671300262371,A
12.01101540788234,-5.84358063910709,-0.3658699709153332,A
11.795424441614989,-5.364972753880019,-0.3128322752269631,A
12.02323252852502,-3.9359949119074322,-0.8864025060214585,A
8.39980148853766,-3.4561664628649442,-0.8575310823841473,A
7.50689842194673,-3.1999183626351613,-1.0688605456258062,A
6.06456609520295,-2.1728456502921807,-1.07374374639063,A
7.311615888299034,-2.050069590415914,-1.072669827214696,A
8.857843637617297,-1.698609813917871,-1.133683651088765,A
10.651935732505521,-2.2378917310400044,-0.5425289615490825,A
10.620254588185912,-3.0297174658861312,0.12781848366697843,A
10.006951270394014,-4.89859533514069,1.1347192543257236,A
13.758877527846028,-5.131145998399621,1.0486673344456618,A
8.470386301939163,-4.682436746181206,0.7433181352485071,A
6.091476456931989,-5.079446598977564,0.7159250799006895,A
5.284408349637942,-4.697839201235887,0.7151221726394974,A
6.109537980513394,-4.342687790307536,0.7952201125191314,A
8.137388808789927,-5.450118974090657,0.8355367814889578,A
11.11253351686859,-5.469327018778235,0.5516533737273018,A
12.90356641182095,-6.93645663224116,0.8572700502413557,A
10.890933045256812,-6.808284403639188,0.278227203805429,A
14.108731759924542,-6.052182217580351,-1.3403050086149626,A
11.653849244549567,-5.343712943204995,-1.978368726163228,A
9.463564983137514,-4.1083361427002245,-1.5846858384838924,A
7.653649524117767,-2.6588309179967733,-1.0730431977921602,A
5.561280729349194,-1.9729861362695313,-0.2936209804172786,A
6.655496202031603,-1.598396993021426,0.22433558596717895,A
7.738670941247607,-1.563881474452491,1.3149990943179992,A
10.885664159976319,-1.3520759582817705,2.2504175026145226,A
9.886689699517845,-2.7502419863665413,3.3133426225789893,A
11.73941926819492,-1.633565610834539,3.7142632800862767,A
10.891312307022117,-3.408528776880699,3.5423984623005818,A
6.605724868886219,-2.6269742381228838,3.3598712717468597,A
5.818283532067392,-3.470442232733126,3.4390429940660043,A
6.241205900119858,-5.396612269283957,6.215429798983489,A
12.928838487963498,-9.178403621857248,8.110080414591339,A
14.626173226329001,-8.017902706187614,9.22920272538431,A
12.297979218500153,-7.140336003366776,7.014453363897947,A
9.819617805048619,-4.902489528877551,3.7234111484214787,A
5.339929054117331,-3.6800510259363453,2.44195952190373,A
3.8859456052962758,-3.9398979132609115,3.840353731381923,A
3.1490146757967135,-3.7508324275176714,3.303120817103741,A
1.0205125039749923,-1.7853500033366154,3.3569431345625897,A
1.7778991998331983,-1.5080768025578628,2.903183889702945,A
1.9358463549582483,-0.4362861788218004,3.190440544324764,A
6.411010059627362,-1.985422460779107,2.933046073770729,A
10.79586304239121,-5.975884790049415,2.2999414616283533,A
13.480023955840378,-5.585998559452003,-0.0046075563452634095,A
14.779562478946582,-8.34883779946782,-1.1066533913925918,A
14.731139761686464,-10.75597144948353,-1.022588653763705,A
10.320868748801667,-6.729145540703366,-1.3401964206235368,A
5.713779676604733,-3.435617531379024,0.7582342035337756,A
4.134277208032888,-5.295626980393866,-0.1657838445920555,A
3.5090858151562183,-5.562241187846885,0.298459099223033,A
7.174415135308102,-6.227700883826561,0.4875853892250702,A
12.731121026396925,-7.384540762458049,0.12199020187699301,A
16.279046778710246,-6.76132610869297,-0.5307724740794152,A
11.797867361676865,-6.225874826748015,-0.2997714842255718,A
12.86278643943802,-4.688383273181451,-1.280143022277715,A
10.82292423678945,-3.9363916799204213,-0.9655467578427097,A
8.04556943403613,-3.4014898506382916,-1.2816723632894698,A
7.197389543082044,-3.151548802893454,-1.0927800916834194,A
6.634535169002288,-2.008462559591116,-1.1834781213272156,A
6.941595479743242,-1.9014673795904777,-0.9949009406048539,A
7.700160423454936,-1.5757579823686265,-1.2211943613507648,A
9.34449161874883,-1.9191524780612532,-0.44622735804317737,A
10.739314166022881,-2.5294765055544115,-0.20369441254778586,A
13.844182156217535,-6.548963238492111,0.8906490379273019,A
13.74242982177691,-8.308705703984613,0.960035377597972,A
7.545035333760571,-7.8510150132009375,0.7076851824875063,A
4.940082435195965,-6.631203060533366,0.8014302187424858,A
4.223235984146699,-5.4704237988397715,1.2100512138208792,A
6.82512715224491,-6.011698775197511,0.7767623806927713,A
8.99596949739222,-6.4573864199887225,0.13681616869029448,A
13.580429672511395,-6.934402195206165,-0.42162584670324144,A
12.93397093076284,-7.556669842603232,-0.39988793870120737,A
11.967259605944975,-6.728750382934955,-0.3582451761923904,A
12.95636497572962,-4.427266891698597,-1.1064316828086533,A
10.33333452434976,-3.2597248096252596,-1.4013993591719514,A
6.79074688861584,-3.365419319681038,-1.3675217125769037,A
6.4817204316559245,-2.548870735903454,-1.4119510848889627,A
6.471261702993424,-2.0402303128353036,-1.1704155278491235,A
7.940961862957216,-1.6666400298903423,-1.3084793622621707,A
8.474808606754129,-2.09608923328446,-1.3961094328482988,A
10.03730918085035,-2.156377294276233,-1.6478606899849657,A
9.896246928786319,-4.586694405810873,0.5001575123117521,A
14.63207195861447,-5.978727329168976,1.5392527548451715,A
12.06436691813128,-4.985942904208603,2.4945639273908755,A
8.534529584966041,-6.826035667327628,1.751239684049023,A
5.555235094343175,-4.19968826201852,0.7984362511911542,A
5.1224840865279235,-4.1441617224318,0.7863189212774844,A
6.016128167440414,-4.907015792687544,0.8436273481221005,A
9.305110377760862,-5.866527109229017,0.6118619622622772,A
13.310293209612476,-6.316321735759367,-0.16093754743815808,A
13.26545101649014,-7.387527651649845,-0.005939305400651255,A
10.753450907628572,-6.6220163035139965,0.2213706892706172,A
13.182968054921782,-4.776623125718283,-0.751200663822019,A
10.044185969548314,-3.3030520153982317,-1.2511757187864552,A
8.090318464504035,-3.87408856186139,-1.5726144686063384,A
7.061976610500828,-3.4314326442160614,-1.6548307341046762,A
7.913596150474923,-2.579673743246012,-1.5967402618534516,A
8.502061131483352,-1.9069644350269244,-1.4203381234242194,A
9.8296681746208,-1.4769510401410144,-1.333721863648482,A
9.642792045666035,-1.869219042103908,-0.3186883837997865,A
9.989818520229989,-3.438218245322167,1.1132262256236896,A
11.741870456126122,-4.62381180489983,1.8117663727664373,A
11.762891203220533,-4.591958590633489,1.1798760759327052,A
7.138059280056281,-4.994037409986376,0.5927223861841919,A
6.896336498653078,-5.760266773546887,0.20536687577921767,A
5.768969098786021,-5.7524919050286325,0.36091754082297833,A
7.612369755143779,-5.754859685241435,0.7429899761382217,A
9.35037139288943,-6.264129550961661,0.7577593057340826,A
14.095082586226281,-7.461384303800635,0.8022437107768751,A
11.749481022969118,-7.314548161482114,0.26017271027379263,A
12.595982742921557,-6.0590449252878855,-0.005220532987134773,A
12.551037300823468,-4.49443272867551,-0.48174527002525214,A
8.798626871273733,-3.251829819086416,-0.9514071504984472,A
7.4367378134321855,-3.31462965319747,-1.1201427111296174,A
7.46900906569115,-2.303001429074389,-1.4313548672460883,A
7.593469535480747,-2.100454848106167,-1.4190234245535376,A
9.210626669142743,-1.527931891799409,-1.8056668971440204,A
9.33015053280349,-2.0058481064179796,-0.33842954296552996,A
9.623158175618896,-1.9799357130692083,0.23547132195731685,A
9.529008738740616,-3.71849360256267,0.8177461477874246,A
14.100347342916415,-5.419772662407015,1.1358962136738853,A
10.890973608466643,-5.116814904512965,0.05200537787833757,A
7.369065012061296,-5.737983590923841,0.5308843308885114,A
6.124369961415818,-6.541471954356483,0.6583284347032204,A
6.2084965826328435,-6.362351162465659,1.9650685373565921,A
9.547080743599345,-6.855303363597184,3.0998365710911004,A
14.123861746754248,-5.794138580689657,2.227882892793245,A
13.679872512798472,-5.591445277217518,0.9754494287269696,A
12.043273053016684,-4.892124504652525,0.5482754231773364,A
13.6055996775739,-3.6339576846920005,-1.500924827348296,A
9.507383993072644,-3.218232953207722,-2.1301756943449317,A
7.157513168497407,-3.7911004604707794,-1.7135871493902126,A
7.112459529793705,-3.261980689948419,-1.8013781589128257,A
6.700467857936615,-2.2383271478036493,-0.8852109010129459,A
9.52778422412072,-1.3722586219016484,-0.7334891130023724,A
9.694682823632023,-1.1036943031265667,0.13547487383554935,A
9.567388208142138,-1.5992941495980486,0.6530035293349283,A
9.435935210759501,-3.427973172024317,2.084622612273541,A
14.402251857183849,-4.918208184151786,2.0597627732926216,A
11.357972641705068,-4.832601408683705,0.8600816530739254,A
7.319977970421835,-6.300275735601009,1.1510431189184793,A
5.784534425977641,-6.234130809259709,0.9014962512658431,A
6.323277859322316,-5.404655533087587,1.0742391824675583,A
7.74021452989323,-5.931428822719777,1.0182205873852181,A
12.400228452277078,-5.878759859026644,0.35050452891400713,A
14.012721536193744,-7.10774255601868,0.48671002981112815,A
11.485211252244271,-6.737312596525453,0.9158946986072177,A
13.863633579578176,-4.626747990555259,-0.15568578397908733,A
10.197911990717138,-3.231412503298411,-0.5168630488317545,A
6.309369726729823,-3.332979662917657,-0.5259809208336502,A
6.6637161736605295,-2.9194983595644555,-0.7600849062037113,A
7.550081358879485,-2.320772697530081,-0.4932518457610419,A
9.98159048260161,-1.7376008484610221,-0.8915414648373269,A
9.878446776408104,-1.1452139928364165,-1.0334233135947415,A
10.0659178283898,-2.1700128822713167,-0.14969191270613286,A
8.023270533343787,-3.537192344240079,0.8940761234286546,A
12.523547019848204,-5.190148899339224,2.2905871228478216,A
11.521225640108625,-5.067078571305493,1.8341452119319617,A
6.480703364829548,-4.4174363250700885,1.0036154594739337,A
5.8417202853964305,-5.863949876337768,1.0383089985462337,A
5.098990411057397,-5.563284365844083,1.5653889944886925,A
7.151314569588905,-6.494488770353754,2.087485879965658,A
11.781236719025971,-6.650059838834145,1.0015331833623777,A
13.917964662016985,-8.367276729114703,1.6162229852982397,A
13.918126930475859,-6.836372783632936,0.6544573318833035,A
14.382491387862316,-3.8139165209095447,-0.9310378774682818,A
9.886500676582058,-3.945849952228737,-0.6596261428722827,A
6.9536917763998805,-3.9425970079059236,-1.2742866560620787,A
6.460456013990452,-3.1808140726434138,-1.1327236426332725,A
7.3317906359683835,-2.056052956779923,-0.8984741956134112,A
9.149039520125141,-1.416898710673588,-1.0917517527615963,A
9.552194288760436,-1.1533479126922612,-1.1775801758414686,A
9.272545474164593,-1.9164079269480063,-1.2835585226259232,A
8.954415339289758,-4.403126432705995,1.4499209290245574,A
13.348465807489582,-4.0568821170626865,1.5119896416389285,A
10.706474975755826,-3.560525041605553,0.9227761333340512,A
7.682912261814986,-6.396685864857646,1.31916990647272,A
6.336433614853992,-6.543292783107003,1.2050412143950897,A
7.874596291014751,-6.378595198622508,2.159034919495204,A
8.093187605423843,-6.437114539058911,1.6623223162367766,A
13.083847166392045,-6.725838751330007,1.6475315600770486,A
14.329062782768155,-7.096369324617555,0.6601154434494654,A
13.018686222509793,-6.29985606101576,-0.3721998123417526,A
15.105804290717783,-4.32950429387272,-1.524171422545367,A
9.739827466213946,-3.3435732341327995,-1.5566764730350835,A
7.661105511349027,-3.790466238895921,-1.6341982017937213,A
7.489721805253355,-2.752150406665889,-1.8390696773181305,A
8.439181297401625,-1.5011591430756122,-1.8245160011908705,A
7.958983935687179,-1.1278282575191791,-1.5407198855945388,A
8.633720448758679,-1.1353405306682214,-0.6091080328728732,A
8.496639439634505,-1.7771798582540097,0.6291565174256868,A
10.576305793959808,-3.3407626425060437,2.082675530865744,A
15.789407822806622,-4.514885098583669,1.7266459078133858,A
10.592543900872514,-5.801005536530209,0.8417935916631324,A
8.059222344037936,-7.166307109325458,1.2243983828156537,A
6.150881734813187,-6.689224242433816,0.5084678933475054,A
6.528913673203016,-6.011740740005487,0.7929530691037399,A
8.580002462357267,-6.2510150706903405,-0.4861827758143378,A
14.058057409794571,-6.847329958219529,0.2748384693967294,A
13.664508654120631,-6.712078879368363,-0.14623683670726548,A
9.865558761021113,-6.90678398047955,0.03857363213118234,A
12.583775502906386,-5.411418468411096,-0.7717130777968804,A
10.313668718890849,-3.5844607181343684,-1.240556632939058,A
8.459372671771249,-3.215991845996151,-1.1062807832140054,A
7.988673568263,-2.2224666033397975,-1.728212083587675,A
7.273125249227353,-2.0943826064052833,-1.4298003547740585,A
8.34468826434493,-1.5971514232823116,-1.827023999409553,A
8.795786386639966,-1.8529141480749396,-1.512959083233714,A
10.295977298965319,-1.8707189691023016,-0.9137285061610181,A
10.174812387719754,-3.3529950883180124,0.3904576023212377,A
14.850714592982408,-4.664840284488861,0.6236427469023472,A
11.516001437142098,-5.239067431332367,0.2544729598832693,A
6.892637284363061,-5.270364567696927,0.4156477425789463,A
6.052237901107496,-5.61443299008323,0.31653555716627874,A
5.491172793993763,-6.44414353316192,0.7462674723892047,A
7.486148058476605,-8.247453109036284,1.9176079664922114,A
12.836672777693131,-6.968295492639864,0.8513386855195245,A
15.550644895100547,-6.164779527242647,0.04713810108926619,A
12.57468128939328,-6.730756931892927,-0.14829649341068962,A
13.516617040036207,-4.435277629100282,-1.4901348467464022,A
11.665690363316942,-3.6760835464321135,-1.4751912152752165,A
8.061403665510214,-3.4526475369321155,-1.8023446253599618,A
7.963286329468819,-3.2867934084431476,-1.8173944952681431,A
7.515471903541978,-1.9742432404648977,-1.7928611112647994,A
9.246901003760621,-1.8478857462060418,-1.78148600445975,A
8.19421398627826,-1.2943412438280202,-1.7215411722978424,A
8.724572753042377,-1.70486517459382,0.22193282853990703,A
9.093415712591847,-1.5848121795996217,0.4116410865813914,A
12.615042589456317,-3.884088979662195,1.0990452481760573,A
15.703542446879773,-6.43006263590566,0.09301521131840039,A
9.010543810752202,-7.093544807665623,0.11507802835604308,A
6.893547573540814,-7.224876817996703,0.320748137343849,A
4.912633075863059,-7.368560477921045,1.740003331257518,A
7.174978669004762,-6.855848870191825,3.0333364531825993,A
12.134347337014518,-6.048903188307008,1.332546911451698,A
15.509366581626105,-6.502245610179168,0.057592358466008124,A
13.400204687972844,-6.585050603679879,0.20437076269154067,A
15.856574423415024,-4.9752405696309525,-1.9979166858154613,A
13.284363694034909,-3.3742969044685474,-2.328278030530629,A
10.020353785310002,-3.380976057591393,-2.117638279177363,A
7.575448658087584,-3.1804742663403323,-1.8276661958278493,A
7.341020314333477,-1.4315075235749555,-1.900845517295592,A
5.312476076442478,-0.6767836492689876,-0.6689525398824179,A
5.416460450625831,-0.6190778295079074,-0.8170094394047102,A
8.813784316409734,-5.203752052769625,-0.3488572189402022,A
9.513639498223194,-8.498676031045795,2.875328438511082,A
12.776784917307808,-3.8656213287346426,4.480133920431304,A
9.652634240625703,-4.129146471250248,3.592583828880452,A
5.924653718746756,-5.655150110245955,0.6923997024376383,A
4.81085545668784,-4.901919073753973,-0.09459116551262442,A
5.701585495981833,-4.286861720885827,-0.3415779201685163,A
8.343377403978955,-4.971839338699659,0.16732363843654877,A
12.314437542053678,-6.146988689344549,-0.9503719048654541,A
15.444152201110777,-8.94680890143166,-1.0233725957543394,A
10.837003862661966,-9.202938931145516,0.030029727358059435,A
12.348594450525365,-6.220038433085553,-0.34933766032833846,A
10.792187760311988,-4.761402543080733,-0.4411750662000025,A
8.272304171260549,-3.8846580808045292,-0.6690248435426489,A
8.03967646317178,-3.6667888358987946,-1.3812884367661304,A
7.4648469006994596,-1.9824030085358721,-1.220764942924888,A
8.397982509283294,-2.2381679930427345,-1.6068885413773206,A
8.759696177064377,-1.57754224104237,-1.5967926881771575,A
10.458025939011968,-2.0199194768233752,-1.0826727791726172,A
9.398352779372358,-3.154593908442575,1.0975720818804786,A
10.871781506795685,-4.517015966167934,1.1813653416626897,A
12.168031804079474,-5.021164748564337,0.3063909959318882,A
7.18717462668506,-5.738772555698752,-0.0886185522074739,A
6.828401464946457,-5.191889239716557,0.2609080227472462,A
6.095728889445578,-4.219221195204874,0.2188123353739837,A
7.410575740568227,-5.58285661137595,0.6466826352656978,A
9.066576730593289,-7.444639199448265,0.8886019345464146,A
16.559183344249064,-8.968155542609377,1.158167103465172,A
12.566126537090632,-6.603743070491369,0.06694636810256098,A
11.717168118094989,-5.491537162153599,-0.3115135678932209,A
11.820143368125045,-4.811943544618743,-0.7196912353841202,A
8.294384086113281,-3.5558002136265636,-1.4939701035555477,A
7.689063743851948,-3.7023924015802763,-1.6835554808378985,A
7.886144865376689,-2.7774057941061794,-1.587655982412878,A
8.361340672846406,-2.3480318048873,-1.5551217721973827,A
8.439407078066463,-1.732690488308224,-1.3732758231076083,A
8.304913569978131,-2.14655790991954,-0.029879758856347496,A
9.180467282890083,-1.9887119710106138,0.8782283167713674,A
11.89994661148215,-3.870486428964895,1.3802879550350557,A
14.603585463559734,-5.072630392792622,0.38405119222051104,A
8.355500631662471,-4.156645430904551,0.3232126226245329,A
6.800101995402828,-4.1798631281557155,0.6731106113083118,A
5.540752938754779,-4.842802633034889,-0.21403629938540766,A
6.396696767613446,-5.36128642915686,0.5907139978637205,A
9.701867931960734,-7.952819393484794,-0.26890705450956887,A
13.890316318401425,-11.01400345860922,-1.3943307145415,A
14.056800648990748,-8.946269330068041,-0.2292267875019104,A
12.175200640370711,-5.775724751020903,-0.4809428491853564,A
13.646167410059839,-4.794873889256091,-1.4652155879953757,A
9.582292657707097,-2.9527535995177985,-2.4485495188190938,A
7.418455643919258,-1.9359593070220702,-1.8710629387923536,A
6.479565799116306,-1.1498562201801827,-2.0820014270370044,A
6.956941352910784,-1.6197913898701353,-1.6459678448452693,A
7.815514706260753,-1.1319748997783552,-2.2012038169363564,A
10.286731435195938,-1.6573351271285415,-1.8014571835413524,A
12.14696999630866,-2.859465996482326,-0.7689563009476313,A
12.376813434504328,-7.104776627361904,0.8400352700973803,A
14.144002896200377,-5.539546352667113,0.6877967419711087,A
9.375141679740924,-4.19611509476851,1.4031806616842617,A
5.723392795512228,-5.294197284437434,0.8228413035857228,A
4.110757059100757,-4.548961145144175,0.9202330922454824,A
5.452299778503365,-4.617086276727203,1.365851534955394,A
7.617191642078258,-5.421484645895145,1.1804967551980992,A
12.35865257313558,-5.5216361835500285,0.5407113560546692,A
15.688678378207161,-6.284124234057025,0.048229193066366104,A
11.672266155658544,-6.115685701847611,-0.6447159144688611,A
13.488109232392677,-4.392712593180831,-1.599489333909807,A
9.209416363701843,-3.3014927758093315,-1.5417559269461372,A
6.986452530581738,-3.454396703177025,-1.3703767263004458,A
6.155204623878639,-2.546978554505787,-1.5757556254274991,A
6.783182117449107,-1.963660916670066,-1.1675715910341762,A
7.485181362993264,-1.838142771366834,-1.3511654548690741,A
10.335745826037082,-1.8825243664040667,-1.4822279645994971,A
12.532223153627546,-2.775062185184669,-0.9583396863365176,A
10.514497992900134,-5.012208306672669,0.5358475146231229,A
12.112819422807194,-5.916201872208472,0.9331663161250507,A
9.682032055466898,-3.2732997303352733,2.884298641346746,A
5.272168054289666,-3.4407831571679797,0.8698607309144594,A
4.839023558584072,-4.611337950014155,-0.0015887249031076509,A
5.535904185540443,-4.543208986050714,0.5362317638533382,A
8.231020095456772,-5.491125739391871,0.8338740867348206,A
10.672683542195852,-5.378513147950084,0.5523919515552772,A
14.732995241735578,-5.595369509904787,-0.3645986163501256,A
11.222339159602287,-7.004240672830507,-0.3301310734020477,A
11.761565840851034,-5.342642473572355,-0.8332016800083365,A
11.203667194912429,-3.8354515506456837,-0.9759620160069734,A
7.47754150265442,-3.966588233741421,-1.011700777303423,A
6.787151263259644,-3.675625008173632,-1.203774574370749,A
6.399000197563679,-2.2406594429310753,-1.1544488472694403,A
7.722880372996034,-1.9341990631931534,-1.3426353268046172,A
9.041053553421897,-1.5346322033038209,-1.6263661444122837,A
11.179791728850837,-2.517154492018179,-0.7489765777038335,A
9.885042518892526,-3.648475779421395,0.42747636774109443,A
10.416953257554365,-7.40131758387114,0.395342123256683,A
11.939687297051806,-6.883147292011315,0.09272250865807796,A
6.707804628688642,-5.003684426604162,0.19494861354633775,A
5.379646423954191,-5.2710720505090976,0.11988005993730333,A
4.497964660078207,-3.7159067115743287,0.04413510886991449,A
6.623230073593999,-4.682606311078576,0.5732672945791275,A
9.11210953307158,-5.612248282634002,0.6745950275851769,A
14.592417236288888,-6.119251349298377,0.17971094366428736,A
13.340096638576075,-6.8973730089721705,0.218752903014419,A
10.877991969697,-5.502968783412677,-0.30456347779298565,A
12.002165092602928,-4.600423793936041,-0.6739865038009452,A
6.965022124933251,-3.7647850609151834,-0.9217162578320255,A
6.501020497072765,-3.797006125469311,-1.1305916567505292,A
5.831468669289876,-2.4790851471510074,-0.9839997454913265,A
7.713780292434217,-2.3352870127608125,-0.9527171755724828,A
9.384578269254614,-1.789845961556485,-1.4008547102775704,A
11.70517218779753,-2.180074680379714,-2.1550211027739694,A
10.50550052232521,-3.6559924555468806,-0.39636411281521455,A
8.943916362232898,-6.051317779444583,1.7751259495272351,A
11.294805524503944,-1.6855123872148328,0.5201340268401332,A
8.801517688310131,-4.533763699259071,2.688076226445664,A
5.3220493340342525,-6.116141527959513,1.0703959544422186,A
4.745944201064934,-4.69710068565909,0.513673285629993,A
6.01676944757707,-3.861636074424575,1.2485246386688331,A
8.657714506022971,-4.183593544120245,1.6156629607985817,A
12.252941275536202,-4.328929524695693,0.4839022823342172,A
14.865465859773531,-5.5206283453628044,-0.9194487528254304,A
11.05638226024312,-8.120509386603848,-1.0730297914541145,A
10.978424923399842,-6.765103074585082,-1.0891527460909258,A
9.677891451152531,-4.742945886842572,-1.1407190158885954,A
6.650150266010783,-3.8110565532384038,-0.5871236377437368,A
6.3366821344343975,-3.3088235952150926,-1.0273117431104017,A
6.0931572075874705,-2.275030207706495,-0.8037571921060404,A
8.341320447381941,-2.369505359837449,-1.0139923732302571,A
10.933430513489853,-1.7878250617196092,-1.4030491981895912,A
13.333864406949028,-2.616564359413929,-1.601008956291102,A
8.702910592174575,-5.505327140371528,1.747535300258629,A
12.403524350446489,-4.023893763393956,0.6115323283504259,A
8.873092081272956,-2.7396563481331757,0.22435132692685664,A
5.6499680027113115,-4.53021669987951,0.27477437054377307,A
4.422221352127633,-3.91195921827463,-0.07282937501114335,A
6.278375833794595,-4.009668924951167,0.34953757216107595,A
7.277029953222517,-5.313228474096058,0.7805201965869033,A
12.495975465607643,-6.307783398154405,0.7664986446152088,A
16.0532551236927,-6.911044484095526,-0.12190163646235828,A
10.836254711645942,-6.896182783715289,-0.20126834066296612,A
12.077970020898498,-5.559572120682209,-0.848633878522054,A
9.436233882145732,-4.16492229584464,-0.8840690624142408,A
6.800534385986239,-4.232177131608743,-0.9602182220056954,A
6.566195583631758,-3.405995717729871,-1.015696220190695,A
6.732765411814444,-2.391652001054813,-0.9169291952171273,A
9.074941831921192,-2.104742915723645,-1.190678499521232,A
10.902977893540822,-1.5715257775622107,-2.3376863617465524,A
11.471635504316891,-2.668235490453565,-2.229622952027458,A
8.758127818402079,-4.205375850647455,0.2184189930641768,A
9.680585859393213,-4.7098078662688945,1.6070762694041165,A
11.658037626382871,-3.046234159345513,1.1722600898316176,A
7.606634174900532,-4.737003397409428,1.1305476558609477,A
6.011530872604285,-5.759456812082522,0.6900170900744894,A
6.014435891589084,-5.6618835975484965,1.3665939274567211,A
7.443863688697589,-5.414586600078805,1.4764137802778885,A
11.020105960015492,-6.386863144839652,2.2023085760928542,A
12.58646633609131,-4.751372082799924,0.6266591874810805,A
11.366020002212927,-6.055803911815029,-0.9237695422497355,A
9.179395170762206,-7.889722093629961,-1.625098199444725,A
11.464357264792666,-6.399504434647245,-2.237854297526423,A
10.18864501746886,-5.437151872962583,-1.5748705788907573,A
8.245508628527631,-3.9177261627709314,-1.132880462309158,A
8.41342869655443,-2.9905584832003544,-0.8998789300383531,A
7.653792026104681,-2.072811181628726,-0.6315197410032976,A
8.659344803117188,-1.8668785606280647,-0.452856734221871,A
9.600400545274837,-1.5551607469790691,-0.28473196373533355,A
10.291185636078403,-1.9919579548652984,0.5315747795683721,A
8.948407348015554,-3.609874737428285,1.9266988119571242,A
13.563412167286533,-3.583278911535455,0.8325156932073213,A
11.040663761069183,-4.116516444635347,-0.07150718046175059,A
7.159901795552175,-5.447126133492604,-0.5401443414791918,A
6.170840788065313,-6.32231181416876,-0.7598890251924351,A
7.097362344435339,-7.355059775188012,0.6807454362438656,A
8.764664345075289,-7.303092803191889,-0.07427746255114802,A
11.701705871740561,-8.401115417913976,-0.4063269844503854,A
11.469517796221263,-8.893982146315508,-0.7783015301536328,A
11.177601738355886,-8.129884961713577,-0.6070249800026383,A
14.901321336600269,-5.796749541031075,-1.5968866564868722,A
14.958325126681473,-4.295073946665213,-1.5396057244804284,A
10.65835937639498,-3.6100769713703644,-1.7553238034231757,A
9.165293841272087,-3.4767162703944714,-1.7563007598147569,A
8.181718797094062,-1.9580229317728781,-1.8751485548160074,A
7.78058690714132,-1.1506119597138973,-1.2481164445258617,A
6.145123671289333,-0.6698103433366999,-0.9020890599004201,A
6.842935493810309,-2.4508730744586624,0.6996103719898579,A
8.604613328426876,-5.469531140671764,2.2199247656988605,A
11.011183148389007,-10.382888913209113,0.9147243361862991,A
9.334743167183204,-8.836012478518596,0.6502613909959649,A
5.243142095394451,-7.32073439633213,-0.39679069783746224,A
3.068712500946541,-6.095648452220217,-0.6501300227565165,A
3.0623270212252063,-5.583857485067329,-0.1396475151399522,A
5.766356172434138,-6.058565970883081,0.5623715003133251,A
11.36810432927406,-6.71482681725377,0.16787746721987948,A
15.442422100503661,-9.295050112313964,-1.2567760093551101,A
13.407090070084392,-8.552147810156923,-0.7060031593924904,A
10.409168944214588,-7.3754357519868625,-0.7551012575617476,A
11.909848415914844,-5.550689480567816,-0.9228299000582247,A
9.014684729603124,-4.020103434289156,-0.9517092599276783,A
8.91369682682399,-3.5471035421976356,-1.164972258794201,A
8.573395084917223,-2.4872661170351495,-1.3503953029478972,A
7.955578544242574,-1.8601683396524362,-1.1402392231339233,A
8.291496014053358,-1.5289850271614511,-1.3259807705820288,A
8.83052856559304,-1.500202870511098,-0.5736116140683707,A
8.96107664635007,-2.0534204110887218,-0.2089502755056818,A
10.797019904929211,-6.0226353563723665,0.15640007336802675,A
11.581270131688589,-6.980374071323998,0.8238729291955176,A
9.553257946200185,-6.176391764108119,0.21651728095482434,A
5.91014975559629,-5.9464660322818546,-0.08184831559285534,A
5.751360043089646,-4.658069362157186,-0.15926750140924995,A
6.00761191696639,-5.00446457256455,0.3946415420726088,A
8.831686314810725,-6.028120177975139,0.4725288568556928,A
10.390584227503359,-6.653337561645661,0.6823301551472231,A
15.338399572398314,-6.124864871236542,0.018997855103976065,A
10.989349686705024,-6.555350192443756,-0.3887434304018471,A
11.342364732935422,-5.310155116712124,-0.4990233975671421,A
10.011033003118557,-4.028538346549994,-0.6388374443011173,A
6.2139102612713835,-3.1137676075698835,-0.5097261298153432,A
6.246653444172686,-3.1581845113096323,-0.8282380559706605,A
6.328600586788779,-2.053480933138143,-0.5650526216588191,A
7.876213430583798,-2.3952318510102297,-0.9856816553908111,A
10.325149475249653,-2.447564493841641,-0.894225804051827,A
13.094091980312005,-2.9122161540716207,-1.30425362991326,A
9.944591444741228,-4.756884632557508,-0.13060527633396798,A
9.880613472958876,-6.625315862618731,1.5210057647997777,A
11.101949081787666,-3.9290948762650104,1.4941768860195508,A
6.818229075723554,-5.245770364948648,1.2418614494592792,A
5.035219550747237,-4.306098329881537,-0.09526979700226845,A
4.260780330046981,-3.7444389864154135,-0.35519381513284964,A
6.523309568846002,-4.0742611018726045,0.21175754723079854,A
10.060806985511377,-5.551766715189569,1.8914254457361315,A
14.702039567707013,-5.8736828889861945,0.5388481128024726,A
15.374249169764903,-6.048150463686824,-0.06949751659738597,A
9.628445635840105,-4.810507802474577,-0.010920973752718876,A
10.320024769452296,-0.41649763491753194,0.6831218722465094,A
8.667633745069214,-4.902209952716673,-0.22798371724173425,A
6.307949184523292,-5.29290052898636,-1.3813361772761428,A
6.6359494282248805,-3.126499149126674,-0.7493327414856271,A
7.585062274548912,-3.127466681540981,-0.9444206086096809,A
9.7826879828985,-2.3858449913509183,-1.4920234267747414,A
10.919918172222543,-2.4718121184885486,-2.3223724773244157,A
11.376908462078182,-3.406247455699296,-1.4170141315106444,A
9.227122338747021,-5.006978016127706,1.4767321181154653,A
9.743356068943635,-2.8388000939968365,1.9328871372083172,A
9.41041205719687,-2.4804555477362844,0.8163439202287462,A
6.489251838783817,-5.432899139331307,1.6068907131237269,A
5.032242279917482,-4.798311365472136,0.03025290547501478,A
6.237575915394149,-4.475056940529534,0.0446062150904534,A
8.353465195430841,-5.08671405921276,0.737651915729093,A
10.570351984286145,-5.102037681024799,0.6914446423611897,A
14.122477554457788,-6.421201038869427,0.2732137739752419,A
12.013307619725403,-6.198526899990064,-0.2010673920927867,A
10.124330285324325,-5.6465959681027655,-0.20188156694476245,A
10.69078461887494,-4.562362292103244,-0.2918039639453313,A
7.4300025550299695,-3.4956063722137927,-0.3482880064998969,A
6.692810185327305,-3.416919126303892,-0.6043099012941012,A
6.118069444885491,-2.762729866143454,-0.856052466500353,A
7.5578499337059855,-2.417151665271703,-0.9198525377007807,A
9.55279413034486,-2.2866827226662063,-1.2104496272476752,A
12.362359082073704,-2.371249303569422,-1.6474607154690888,A
11.56203146026509,-3.3329932770298174,-1.2801159417990924,A
8.298063802301021,-4.279590094823539,0.9408715699010447,A
12.018113279177019,-3.5611569689063916,1.718621747255645,A
8.950836352279742,-2.1823153260029566,0.7766734139123197,A
6.207884132577435,-4.4129929566183055,0.7067668335241053,A
5.624318925162127,-4.715544896820727,1.4627017827131008,A
6.4853508574223575,-4.405800335479493,1.8466465191326638,A
8.032365405798226,-4.681881719691814,1.6854527107205675,A
12.160127226395666,-4.92971568038908,1.3560721039595305,A
14.327115908062874,-4.207223374048237,-0.35542658614712774,A
11.533964975365727,-6.120172540439347,-0.6419442157361434,A
11.388798712216301,-4.802170633080016,-1.8885638341619408,A
9.093723010878284,-4.433766442076091,-1.9795143659139105,A
6.978195825125517,-4.433386982625129,-2.3001812858950914,A
6.856963819971151,-4.941755550266759,-2.2159032444583353,A
8.960040106102566,-4.3852946343696635,-2.4588500986689024,A
9.698706891003487,-3.465265886279134,-1.0300610099121283,A
9.807007186046024,-0.7458668402714544,2.4263008200871496,A
10.71432695686049,-0.719169647102372,4.219563183973285,A
9.036322036745915,-1.3107878858413344,4.826993945076317,A
8.690911092023653,-1.6439072109285444,5.242805225184708,A
8.433301723370063,-1.1916496978264086,4.6837902244271765,A
5.413734939925272,-1.6331337568975692,3.684350808965192,A
4.537423133865961,-2.042857239469122,2.5421375195409723,A
4.89418633044879,0.04202437454382341,3.4544120341929716,A
6.280599057749406,0.798505768527401,1.11452133860199,A
8.33345150181505,-2.839240792023288,-1.0839853852183745,A
15.599492061315951,-6.211531198983137,-2.115532077161468,A
17.49731641364626,-11.362165143731772,-1.704902549342339,A
10.915547836866708,-8.318533870808926,-1.727778713267491,A
10.950248962808576,-7.143475058954618,-0.09358427569471485,A
7.667345627544259,-6.6092243750455255,-0.6137455360492035,A
8.466041917301068,-8.169535319151315,-1.148229712943636,A
10.640930014595128,-7.492820269941645,-1.611321006387665,A
13.372780079724684,-5.357494757425638,0.9977299801790777,A
11.630775249432926,-5.829549987727475,2.077834984045687,A
11.959757044424606,-6.1735637390786255,4.38895638344706,A
5.9591690156950525,-1.8943961821615158,3.477605097312742,A
4.6851709477263155,-0.9372180583696773,5.52082026965207,A
2.784217667201977,0.246057116975251,5.826427969209715,A
3.520968432009001,-2.210438601232683,6.9688474975375545,A
1.0261219062995033,0.7538258410584775,4.750575669570657,A
0.9343743879397387,0.8947615102841016,4.554314252666124,A
-0.5319238240442931,5.110836789172485,1.9732804731352225,A
3.939614855506112,-6.63707369539887,3.406598323431284,A
5.08017306628005,-5.771422429687328,2.877781631841181,A
8.973394556642358,-8.1102316919386,-0.33967408346360384,A
12.440740627426527,-8.045602075097518,-4.009438604896137,A
18.52397608844481,-11.499359007546794,-1.4500087440382918,A
15.655666674797363,-14.226964318816426,-3.6977392273730967,A
9.550643438369196,-5.011635731194975,-3.3300556617223087,A
6.63183324443197,-6.497004334296014,-0.03352396682765973,A
4.6667480377440205,-4.15285817397907,-0.036980609361311784,A
4.956966084170993,-3.5653079760251174,0.2472931191695356,A
8.301621752276093,-3.493136254434918,-0.06390929077691954,A
13.315559333693423,-4.715489598172917,-1.1748885150649162,A
13.605383894211412,-4.9226694537864155,-1.9679270663571096,A
11.76643239731368,-6.514088711400418,-0.2967118341076253,A
11.753972971041398,-2.4798424140099233,-0.06116928599788716,A
7.352041144171351,0.22550845811993858,0.6558582734440244,A
3.355044428569352,-2.1485086705784258,1.1394944750616707,A
4.1050958166229,-2.35840761377527,1.035597008389403,A
5.267286767529402,-3.0582456023471623,1.051846551630798,A
7.375380703056291,-2.8735763948240773,0.792104360205015,A
11.394649944045849,-7.317355966460673,2.059771162624631,A
13.795456124740149,-6.722009065521445,-0.8157254670642035,A
12.248804596877171,-6.246084540713789,-1.8043491926315298,A
10.301344566074212,-8.335600706904701,-0.7966471236780746,A
10.49911181508306,-5.885032558795694,-1.2625772293644573,A
7.838928426178424,-6.078849752412861,-0.6286017815345469,A
6.766793215440306,-4.24824736484886,-0.8029643045065301,A
6.474321238666123,-3.886682802672427,-0.35187224484029844,A
8.386230887171719,-2.9126845208266907,-0.43573183728097276,A
10.160894231300468,-2.3553563582926897,-0.6643974281976259,A
11.710542842230693,-1.9696278577822337,-1.4911614730013187,A
11.300512613390957,-3.432149128543845,-1.5114266336950166,A
8.757891482011805,-4.443720264526805,0.3907589773944718,A
10.047202062100858,-3.531774485324035,0.5042744724730633,A
8.663035474774547,-2.242067584088229,-0.2665057354784186,A
6.294166362092432,-4.0177274779645336,0.3020737029349815,A
5.225241759862698,-4.558430836985763,0.46317081848145114,A
5.2615067608975865,-3.899222693965471,-0.17081841927451394,A
7.7498363496444895,-4.917033865237221,-0.01358761409652571,A
10.976271603312151,-6.517777438024694,0.6376864513708599,A
15.074913166594904,-5.946421175595983,-0.19603991775677057,A
12.73618328651743,-6.235789480507783,-0.652541047292655,A
9.789164436191868,-5.61539395673524,-0.6736384195462892,A
10.013644881270757,-4.199063473080279,-0.9422217602223656,A
8.041539844611547,-2.8060938347022453,-1.342450846623148,A
6.159990774286018,-3.635064172689041,-1.1970417071556214,A
5.717268069887983,-3.3013360931403706,-1.3953012769840953,A
7.881044887438164,-3.73667635761515,-1.3464813449782638,A
9.597721672977373,-3.8602533460534896,-1.8884653732795575,A
11.111386145352835,-3.4329470174409864,-1.5524962690887887,A
11.016370455916915,-3.790171185878999,-0.6610859758197909,A
9.656469091040758,-4.734435261408384,0.7117429676571099,A
10.595855006624873,-2.919223051389776,0.17669486346792285,A
8.403916776511151,-2.7311218775417845,-0.44553298135237684,A
5.725703229105189,-4.312237045367745,1.2149052441065695,A
5.193556447647953,-3.3062877153082724,-0.020183909801922625,A
6.657432525257935,-3.7958831483167623,0.18164291334845822,A
8.735289695855961,-4.439602078475629,0.624034298620022,A
10.240521467181537,-5.0658981103266845,0.42762753241169316,A
13.703484355234288,-6.049198754194036,-0.25218276398862066,A
11.219004928776002,-7.746160972613376,-0.4517383198075048,A
12.086558679439628,-5.504679466605893,-1.1680187618793239,A
11.209393051571872,-4.278041466390599,-2.1439600244079084,A
7.833677623337074,-4.395549380303796,-2.213085243937845,A
6.687952863306688,-3.0356522834663915,-1.6789273964786902,A
6.242538972813844,-2.2726268567166055,-1.3091958490199476,A
7.445793915972647,-2.9822988886736934,-1.3620250007173933,A
9.707728675720666,-2.888699541511181,-1.7176928399095832,A
10.438658645284251,-3.887295628860869,-1.3489833259117248,A
9.881108789976196,-4.657162600253886,-0.559989541050342,A
9.640395123371903,-5.242962908078401,1.053207545482153,A
10.864181441856132,-2.834769886520048,-0.15363764235712887,A
8.929719798009359,-4.99062841259137,-0.18063841826445048,A
5.492602309386428,-5.908110369458062,1.0909162895358524,A
5.453072615601403,-3.863368218468924,-0.36944138650298847,A
6.90920450257928,-4.045145083915536,0.4700905373752675,A
8.501882038905476,-4.037759194456424,0.6222679997732566,A
11.573425467269141,-4.964573725760037,0.6883151507285461,A
15.148669253416154,-5.135593733784529,-1.396660229662337,A
10.160197818174929,-6.222447820793523,-1.5811144046424952,A
10.522555670415976,-5.686201953462654,-1.5733472178238341,A
9.116171854296931,-4.920798701764639,-1.5076760724462885,A
7.325941359287727,-3.9336278287741173,-0.9304547346157904,A
7.137210949684581,-3.518625809891917,-1.0916504166157563,A
7.593142494481416,-3.4748346397816756,-1.0786403046968402,A
9.07185911719884,-3.860258287586148,-1.721459212422447,A
10.283134206583545,-4.477877269343596,-1.6115926487981316,A
10.617006904598721,-5.035452256182651,-0.8061938513317126,A
8.630967259438581,-5.908367055031577,0.386277532063795,A
8.790122387453453,-5.146752079350579,1.3064982348830068,A
9.330009790027244,-2.624468566067838,0.33138734508127293,A
5.343751913840782,-3.214624242524628,0.29569463375314775,A
4.771310736625685,-2.853755458279634,0.036660673024401035,A
6.175600307313262,-3.4508051825077786,0.03827283192359293,A
8.767218296486595,-4.293427745802094,0.10246749579150878,A
11.314117976133744,-5.661635806251823,0.10693957300122595,A
15.011504533883778,-5.509555477898269,-0.6537579367443352,A
13.701889878479992,-6.902678444589502,-1.3894922601970585,A
8.89813049566206,-6.554372963654526,-1.162696274394462,A
9.222715738665109,-5.675497339856474,-1.2333798704424204,A
7.298869115633543,-4.949373277542961,-1.2923883148891788,A
6.884602243982229,-4.858653168047894,-0.8422996778921702,A
7.097467792215056,-2.905138673400882,-1.0874953822167173,A
8.580021107862668,-3.0770199189550773,-0.9672413997458382,A
10.396539042343663,-2.6525905116887394,-1.550258918105263,A
12.870904058279141,-3.658300198576467,-1.3543715777536953,A
11.667683748087962,-5.684932714770948,-1.0712058723663733,A
8.475688073622551,-7.682531280308052,0.45252820581554065,A
9.6600389860459,-5.276545251322862,0.4047840911595332,A
6.439946046460493,-3.969078545204841,0.36124330474748795,A
2.943959282798485,-2.278237424713249,0.6289357837104731,A
3.0508109329671345,-1.986045375619783,0.7755685367814834,A
5.231028824357505,-2.2308885961785343,0.6638090666142765,A
8.600589219386633,-4.594818599559942,0.12725831374486696,A
13.813553200659648,-5.687370898777189,-0.40313608139803875,A
16.638131678993798,-6.883154651165397,-1.7108767345740583,A
11.40349970203614,-8.113293971742214,-1.448077170098532,A
9.737361838661219,-7.6229907904200775,-1.4886954959104277,A
8.676164480959205,-6.048023841809656,-0.9047055143245868,A
6.436643217397168,-4.879016603026512,-0.5896722847202548,A
6.255877658100821,-3.945973673467558,-0.5337694228159194,A
6.687483259881152,-3.105001682921147,-0.42690855280635054,A
8.63523553601411,-2.701361696145226,-0.7023117508810958,A
11.198583072445322,-3.031662196408757,-1.4568837412168467,A
13.905929026005039,-4.250454311970585,-1.8299197743859708,A
10.249659583737175,-6.215345937183771,-0.2929708412404963,A
10.180800494529858,-5.486711236191463,1.0746021219123476,A
10.032788741295604,-1.093249308842766,0.22360454138982516,A
4.725424636704479,-0.7415293815473287,0.6516716454119905,A
4.411338112632383,-1.920834441894606,0.5641347310763912,A
5.003833940178682,-1.5787965305533278,0.2024525636663813,A
7.747814551237834,-3.454819237707748,0.06483753198343388,A
9.736915055585605,-4.430541566264391,0.003075619890369719,A
15.992150855139295,-6.739147606332466,-0.4128368322211321,A
14.65977535860648,-7.568777223258166,-0.8693854923352042,A
10.730293610108054,-7.130483031797056,0.19842507184762181,A
10.842811489979624,-5.9121885014162086,-0.07361160209502655,A
7.692933218986141,-4.316185703769669,-0.1554094073842098,A
6.208327990425148,-4.117118045882921,-0.4372232816258733,A
7.242363096787765,-3.1735236984462936,-0.5802377864390919,A
8.579570146614614,-2.577379449455732,-0.9010606359150121,A
10.94695094783113,-2.216479568656803,-1.8629581510588265,A
12.69300408168408,-2.080773888273891,-2.5632405772366456,A
10.819221098145086,-3.8852910708688855,-1.2844731447228137,A
8.843894855735812,-4.437645244368375,1.2066208910346274,A
10.818062425534183,-2.0576613711715983,0.08604831443447308,A
7.11714996704016,-2.1009459596579907,-0.14918505705550747,A
5.519751886000609,-4.350475466849896,0.10171449365783086,A
5.062726699808544,-3.7091081362591782,0.6412896802874095,A
6.957398118693888,-4.04881021069742,0.5658624851087825,A
8.731605887618985,-5.640723422386127,0.7347429038989315,A
12.94857316206776,-5.092009941973953,0.7507005302294016,A
15.086638866106862,-5.858024165469635,-0.8637790578665169,A
9.980997916289567,-6.64346376084891,-0.8228320671329703,A
10.809556449123551,-6.365907793441556,-0.5374257336525124,A
9.84806194338448,-3.9505301690294163,-1.082834398614317,A
7.637735979722129,-3.4559414726361006,-0.8881525135500102,A
6.906903462321717,-3.171946992073504,-1.3028887053790255,A
7.51743017550121,-2.396775420602386,-1.1091251422873132,A
8.9096494998646,-2.216696906328472,-1.598743307372765,A
9.960564182288103,-2.298712652900915,-2.0937514922682188,A
12.287345486684092,-3.1200677853349568,-1.6431689251543524,A
9.189722788601271,-3.8905563999728425,0.12614929858256702,A
10.658260135424754,-4.2785464930845905,1.0927779478278532,A
10.113272072650563,-3.3556436170817165,1.0853113911223946,A
6.23423641959452,-3.8166604523800625,1.199854472963551,A
5.349548610668976,-3.707791847794846,1.0738710129078577,A
5.58881123830796,-3.821696562220475,1.556783543976868,A
8.033675322987355,-4.653590647933104,1.8195356833533456,A
9.726974130291813,-4.939197940678941,1.2365313157274083,A
14.087800400605,-5.571352325578484,0.037629463583821444,A
13.151949939159952,-6.408031003025663,-0.8374579175930927,A
9.792324075918712,-6.44193554930324,-0.6653848116858919,A
12.236424866289797,-5.542153978755927,-1.152575508585366,A
9.997084189345955,-3.232066883839528,-1.2208488558798891,A
7.932673595029971,-3.65271255893936,-1.0918669333282573,A
6.74828304131405,-2.8762509040813793,-1.2475826332426885,A
6.695753502670228,-1.9397688612305253,-0.8411345995383268,A
7.940854318164033,-1.1947205911395273,-1.1619252198293235,A
10.07094976500681,-1.6370827304853437,-1.272310207711166,A
11.597571441047466,-2.5057481102217842,-0.8374639154147536,A
10.921951425012066,-4.794998976454671,0.7640842733322892,A
11.624276756770369,-4.61773186394232,1.245484897523447,A
10.30641623959023,-3.5768854150029457,0.1786477581628384,A
6.37209890530203,-4.477159136607308,0.40662854346111166,A
5.87028819325176,-5.56752605648377,0.47266600761102123,A
6.24860297278984,-5.09073111779505,1.0877153887501974,A
8.177905076836819,-4.924405711638318,0.9059922180165261,A
9.253597079500928,-5.529585495686081,0.776895914778964,A
14.533106006834695,-5.70854261221199,-0.11949870296142456,A
11.612913623449252,-5.897767629273563,-0.402992506140867,A
10.925213515661257,-5.953675233478936,-0.23643299315096314,A
12.13544184196731,-3.883563499843758,-0.5653283406603977,A
7.938215758533743,-3.0359327205976943,-0.5466057113871313,A
6.537759867935119,-3.4867460847050498,-0.8701646556134351,A
6.410962334673311,-2.186844555533282,-0.952741268001854,A
8.047343480058037,-2.337325638488114,-0.9437824425967986,A
10.231441698046066,-1.982303550081754,-1.84103402767464,A
10.333320453564802,-3.004728020242614,-1.5245261893142914,A
11.505455537907165,-3.570832563041468,-0.7763075502136962,A
10.306471319887185,-4.669862881864737,1.4795914044475662,A
11.572237654022043,-3.2934235277715027,1.553506793640295,A
7.843086284999643,-3.2976672545115457,0.862169725160473,A
5.650386153842685,-4.956200804642577,1.3154051278178838,A
4.4445213969960715,-4.497821681842586,2.0137130808123795,A
7.004265390916155,-4.922333291959085,2.476644595251235,A
8.620843580426252,-5.717793732908287,1.5663324624263304,A
13.109837369723127,-5.248402664523418,0.8491472013513953,A
14.233303639149453,-5.270764133705392,-0.4324126309602198,A
11.09235033347524,-5.332835562380339,-0.9762996529687427,A
13.548957790435535,-5.380582298420243,-1.1338220121616331,A
9.292525898395487,-3.470017628972773,-1.1152499370397575,A
7.039914430164661,-3.3081807704395914,-0.7526579986753396,A
6.316379335054541,-2.467518889050513,-0.8727259307015087,A
5.6941378077454905,-1.754510106910454,-0.4858430032800133,A
8.031919102242567,-2.020274373285132,-0.7625750347451739,A
10.096217842868874,-1.8413350679542473,-1.4731160108345704,A
12.802886213691213,-3.272629471085855,-1.572183331507341,A
9.90157361696909,-6.108992744238431,0.9284947272730911,A
11.409841081542696,-2.853982396156501,0.994070815945878,A
10.557203585394538,-4.134573483829641,0.7295231163194811,A
6.449563270478681,-4.870422973924739,0.9636731791440696,A
5.951866669546863,-3.828281952347186,1.407807452617396,A
6.191506923044892,-2.8897698643811287,1.7568033458099372,A
7.858671590596019,-3.993104250499377,1.3560770516171725,A
9.607422461223138,-4.982577215865941,1.0656227817101096,A
14.863850404078276,-6.30857605291226,0.30835273749410486,A
12.112544581487759,-6.928831077751967,-0.6229492882331674,A
11.82056834647602,-6.112804168280508,-0.5518230198232951,A
12.03944707121719,-4.275407137521744,-1.0466432717433154,A
7.2310089821799615,-3.281883793651481,-0.8104996064586683,A
6.23056353577685,-3.3825414061901244,-0.8698336875578114,A
6.441560874032196,-2.0372044166047893,-0.6926152112934159,A
7.6893698532141945,-2.0592816672028365,-0.9070834779509408,A
10.981333679070154,-1.787722495222055,-1.6266902863391568,A
11.66149252376559,-2.3336260768955834,-2.7483849578446904,A
10.060294768212927,-4.609027037073555,-0.16106568511006594,A
9.04285266710753,-5.574818811148747,1.119279070478978,A
10.71551969859141,-1.8861798167898685,1.8175764490168236,A
6.869184006633659,-3.3349865431911105,1.9485779347035868,A
5.66989237699989,-5.061740457104079,0.8471668545297913,A
5.696252353896833,-5.008081941388409,1.5247213447314183,A
8.306492325094977,-4.957142332585761,1.5053726071575362,A
9.534826051326133,-4.80333911063235,1.035978355367041,A
15.103845623867727,-5.0085516212726215,0.13077161226185516,A
13.685093836437535,-5.907458624259813,-1.252385936923471,A
9.367175241401242,-6.534614805712713,-0.9365735687098553,A
10.818089861189875,-5.316992589993897,-1.0128587938746165,A
8.258755739411423,-3.9071172471929487,-0.7844993526727159,A
7.008865173734093,-3.8878126783480833,-0.5520660346323242,A
7.01794948508886,-2.8233743653608867,-0.610615480600339,A
7.825914917566776,-2.394074084371469,-0.8687513984390027,A
9.75999625084368,-2.574363459954554,-1.5056535122787262,A
11.907489083536577,-2.098977256250378,-1.7092112403441928,A
10.650296579907902,-3.019276820995233,-0.6527631082338657,A
8.37856790420039,-4.4975015988581,1.1430710065999496,A
10.461852271232882,-3.1956564753816927,1.4836856781528447,A
8.489870917413787,-3.5995723389136938,1.3893865023808591,A
6.476620401791526,-4.503768091651397,1.50852807734684,A
6.171937430709262,-4.919847507772198,2.2306345881459553,A
6.506498549524153,-5.074148860406003,2.516269589524138,A
8.277725952186023,-5.2962447327798134,2.0361765755467878,A
11.059254165697613,-5.059319629045752,1.0218639256174145,A
15.251728226620054,-5.853202800584889,-0.6675446634148909,A
11.06663679053304,-6.347777743876211,-0.8539825258493503,A
12.560256547544064,-6.014795373272605,-0.4735773364305229,A
11.533446845478789,-3.582907727413528,-0.9488448219545218,A
6.982392917849397,-2.6540399102597085,-0.13077999839792878,A
6.069737852183188,-3.1007778686563925,-0.41067565359077274,A
5.5617948150916305,-2.026640672654796,-0.24606998104621308,A
7.925417589792676,-1.9627277464773483,-0.3277034551747965,A
9.508568148405564,-1.4980577237352612,-0.7189316021840544,A
12.975191544098008,-2.4782452683103404,-0.6522197079717919,A
11.438345913086671,-3.9098420969381076,0.5322804831002622,A
11.03869311477244,-4.684554665436613,1.9612230759420894,A
11.459536258473037,-3.342080309854122,0.5460702536948161,A
7.173266867607274,-4.113254369700512,0.34379184814216046,A
5.031001394831187,-6.0669540864595,-0.17074973723064257,A
5.312529668549956,-6.29420780642673,1.423585378086797,A
7.36497686427672,-4.9722169267140535,1.9610346940717307,A
9.559533599975028,-5.065445801362853,1.4547747762398768,A
12.534000542150665,-5.129224724240064,0.14761544714112065,A
12.959189677721369,-6.178305794657054,-0.24099270566132514,A
11.324392591974787,-6.2957257643382505,-0.35983367005253164,A
13.214190337036534,-4.264979350095013,-1.0923150364365943,A
8.843283491158424,-3.140768800811502,-0.8130688354292224,A
6.564164537625435,-3.1149550221272495,-0.7939601834086749,A
6.535931775237337,-2.2616837373883047,-0.7254498186522115,A
6.9141919562014325,-1.8525824348925841,-0.6142168884531356,A
8.026870314880105,-1.9067275229520995,-0.9578813177832226,A
11.05580106412809,-1.9629031225847529,-1.5090378959757789,A
12.502237993580316,-3.021965778230582,-1.495864318756395,A
10.126414681052992,-5.514696736814816,1.0736259343613932,A
12.056273647059044,-4.576458695667752,0.8598495518273508,A
10.518316351813688,-3.6663026128061276,0.8422288988395868,A
6.6597044978480255,-4.794518387023838,0.7530183964320508,A
5.13735443195914,-4.485990465745045,0.0680487880142387,A
5.756488537679125,-4.573875223389844,0.46150349309682454,A
6.833666371172099,-5.308241201495559,1.1584238583468651,A
9.589724087045624,-5.556457325728072,0.8871484699210855,A
13.965524355261833,-5.829996922771412,-0.6712369302181426,A
11.708470062811926,-7.7952233033982345,-1.297454763398786,A
12.009565331063875,-6.5511102699117805,-1.948903776072724,A
12.080215465110392,-7.140438338404974,-4.2182264947985715,A
11.018809400585333,-4.651133945672041,-2.9934320267954737,A
10.255308529346031,-4.392832472709243,-1.8390874238031285,A
8.812960694668721,-5.482882998318857,0.35308582328871735,A
7.422330872366324,-2.645515139156145,1.8017002059694052,A
5.6560807261079855,-1.6480876942100833,1.554007572257171,A
5.13587591296503,-1.148860643575436,2.515931536976991,A
6.192930320531856,-1.2461739709861215,3.8966129854998175,A
9.102884408365375,-1.7489600295855496,4.122853971393055,A
11.461676751507033,-3.4008478794335817,4.734387466156258,A
9.338760248653939,-2.4441026185769306,4.601893188754047,A
7.863115870890015,-3.5644581677404426,4.727021768099887,A
6.773283225656775,-2.61102656049599,3.1498465332856846,A
4.867189022143561,-1.0045211993848526,1.3681694862294416,A
8.341192186013295,-3.7281253303714355,2.594299785902228,A
8.96810485121051,-1.8274280642932585,2.623264983104595,A
15.956665956419059,-3.304522446766103,2.2926547317574033,A
13.852300564601217,-10.199855853226872,-0.5969222864405993,A
11.463802649968438,-8.483122488599115,-0.7930968910836569,A
13.47232835012531,-5.0357725046806365,0.10572292911130976,A
9.008975434519071,-4.355391642937621,-1.050031387715027,A
9.643569087826025,-3.4884322454525605,-0.9929263355497722,A
8.352012392430877,-2.043605602809508,-1.296088084212037,A
9.929340569947936,-1.4695217051587408,-1.3675214555177844,A
8.92835278759745,-1.146834414547656,-2.2199336587353673,A
9.294351135758815,-1.576321436169437,-1.6246300484842509,A
8.747885159237645,-2.511922071928111,-0.4457271336445122,A
10.256363048279173,-3.5746893330120146,1.7530214608794858,A
13.697473833598607,-3.7050901235252485,1.2752471979319129,A
9.746930455897894,-3.5512858015353412,0.8776507154431322,A
7.043776121772932,-5.450586993018928,1.1728784128369145,A
6.390750081168349,-6.049506363648273,1.3537479463993083,A
6.385678465658661,-5.262814988831364,1.9355149406166523,A
8.441153950804585,-5.709533252991928,1.34830477309891,A
11.1655502385306,-5.294825935443904,0.1969577763316676,A
14.274197189776189,-6.139385751340257,-1.0040279447015128,A
10.310839578327894,-6.818009435601578,-1.1128266673771057,A
12.857556436024462,-5.503386389909627,-1.686537241103939,A
10.28958511226661,-3.642156791838534,-1.2880640957863991,A
7.319334614469231,-3.403040670384843,-1.0704566504677842,A
6.983420797663484,-3.1744067900785997,-1.113404800401358,A
6.780169079467138,-2.2771747585149327,-1.182852114738166,A
8.30024844491787,-3.1666448643809764,-1.3914774527565417,A
10.023692130677592,-3.043654699504935,-2.3319792115580027,A
10.105436836754468,-7.24249682936575,-2.664775945509068,A
8.177059888569225,-8.082096509529627,-0.14899682519835805,A
9.072721937747112,-6.451918365549449,1.3521397292651174,A
8.458930836440102,-4.370560421906043,1.7834263936197094,A
4.741401423508428,-2.8526117667440354,1.993430124712484,A
4.354153325371477,-3.118152069438385,1.2486644320471543,A
5.781935216863846,-4.2947982711066155,1.3188656467211377,A
7.850318646758293,-4.493792789398603,0.6026369324355036,A
10.81661282334833,-7.248902530297544,-0.4040879990237149,A
15.16778142524445,-7.362983713112055,-1.3494419585461284,A
13.096918171594698,-7.0614130487809135,-1.7483296809279218,A
8.678666727974575,-8.025517510186559,-1.1836486128393486,A
10.249243605258705,-6.1916318944808895,-0.8796591850428579,A
8.468358201684024,-4.073409135645737,-0.6261785877968891,A
7.337961270125625,-3.6242945358719947,-0.14830873865293398,A
7.316189203964285,-3.1960989076247426,-0.6053678590281586,A
7.618340394895921,-2.508553713566868,-0.7169865359898974,A
10.015437649284328,-2.4544366433372224,-1.357337585922674,A
11.34953841275114,-2.164737518103649,-2.192272057825273,A
11.179894523303659,-3.7464249372611818,-1.1913132353544287,A
9.210138976226904,-4.96103848224668,1.6891706158855113,A
11.136405286064127,-2.5860437925096673,1.0496337810469094,A
7.197050980760989,-2.265277229636593,1.1859151361387241,A
5.342441906511791,-4.670952903163122,0.7841999413857605,A
5.473793919327663,-5.149676880018003,0.8706912746835074,A
7.387634507248105,-5.102207090899184,1.0596232202448002,A
8.36349341652336,-5.753910557504958,0.8856530799978922,A
13.425418014160815,-6.7215722941866565,0.1568070453206713,A
15.091050349248423,-6.951203963306352,-1.0687015346722137,A
10.429843400772398,-6.827220689099382,-0.905146389159709,A
11.182800429131161,-5.856311017149675,-1.3153974058569256,A
9.108704506525314,-3.844711537548948,-1.0083532544035536,A
6.689296458156959,-3.9139547215007227,-0.7059125410533085,A
7.731321111315616,-2.7691042059494753,-0.971001796303633,A
7.258662330741649,-2.0504559397014996,-1.0152345350297085,A
9.764956371821853,-2.487925284973846,-1.7214400975385826,A
9.732370011182255,-2.483240047299932,-2.6255336968562966,A
10.470094300956768,-3.342941259677359,-1.1432329611226266,A
9.449153023867186,-3.3446476379767556,-0.11846262049247636,A
10.06986883933135,-4.613300134174451,1.2229845301964946,A
10.58049861119369,-4.577433073934459,1.9468058312408207,A
7.084217453993645,-4.364417597379932,1.7030145584048821,A
5.558471287871415,-4.535430466517602,1.6130669500500376,A
5.432242470426201,-5.080223113767423,1.4472738577376274,A
7.031229863801451,-5.75111803697423,1.6476747922297363,A
10.015285791215227,-6.005532002749338,1.0802822088070039,A
13.007993836681377,-5.865627477376362,-0.25551277709392317,A
12.92850925022671,-6.485766768688158,-1.1432118005698422,A
9.368518863557226,-6.6121529565610935,-0.708050844568387,A
12.540436101868092,-5.475269617777997,-1.421140263855779,A
10.023078020926107,-3.6616824536295347,-1.247119971415442,A
7.459333125561599,-4.007398139633783,-0.8155557001699804,A
6.804446824669114,-3.3178348711562844,-1.3249787816763403,A
6.710724835812366,-2.338747891963673,-1.010490593136865,A
8.21019182010715,-2.2360504758514117,-1.2362313356584438,A
10.857798188865392,-1.557818386325217,-1.8273603715667315,A
11.189402835208561,-1.961078897875554,-1.9129670483697936,A
8.334828464923458,-4.577715746206612,0.9090376160354965,A
11.821258549374704,-4.7598160647409875,1.8229257286638068,A
10.637037712115811,-2.8342873990653716,1.5882402225489598,A
6.209725835246592,-5.154762639143371,1.703191012663435,A
6.298335341451441,-6.2490253184572175,1.5160542763547633,A
6.205736679548282,-5.685284013619732,1.921963711668873,A
8.41792806749223,-5.913170846700314,1.5488812443066569,A
9.874095633125942,-5.789164202481153,0.4994946982948366,A
15.955931889646237,-5.689820683267718,-0.5701625847015722,A
11.07941600033039,-6.716073876498958,-1.14545616703535,A
10.473559156888943,-5.379425216953935,-0.9828525315642699,A
13.094446489343264,-3.824269851487321,-1.1997042921194907,A
7.572690002494553,-2.4505001903050525,-0.9739166929325345,A
7.339718745937839,-3.6885236560950774,-1.1634892984046104,A
6.049241528849592,-2.1652042375483105,-1.5170653619898171,A
6.320825942741346,-2.5106363225145034,-1.2782860379506984,A
8.610240274821939,-2.357579393766085,-1.9644662960897652,A
11.066640142332567,-2.801104646298586,-1.4618506795312258,A
11.466364276693929,-3.3565565224438654,-0.7609722089637091,A
10.153885704197382,-4.899862932787172,1.0877371545024888,A
11.205465408276252,-5.590911255308796,2.2500565874365064,A
10.486443367873331,-3.220852599586776,1.112526598979399,A
6.376413688354543,-4.684022532169954,0.9849261560633856,A
5.704002928744711,-5.762019968671521,0.21423790045905267,A
5.281123349757719,-4.625695005196789,0.4162142086206216,A
7.506633414126675,-5.1714704739629775,0.5059784755198494,A
8.497542526185674,-5.469443358459789,0.4513317654547586,A
13.885891660542018,-5.544677492996376,-0.020176053134626518,A
12.749625527427417,-6.818543079813191,-0.29292594066480016,A
11.432849851270129,-6.147219897197419,-0.43890190388506484,A
12.700140738029319,-4.068256268976583,-0.8582915690866223,A
8.657010639220223,-3.7458711694380797,-1.0748855429649242,A
7.5857678597298674,-3.6410082164578337,-1.1557187524540375,A
6.3430093646192764,-2.1735867694340487,-1.0935173933444162,A
6.525330942685362,-1.9695788006441213,-0.9042398878781182,A
8.343794066021623,-1.8388769270268086,-1.3284579502436826,A
10.792344284319402,-2.751636991741766,-1.0145580615833516,A
10.600249803665143,-3.26256878421637,-0.45923744304844755,A
9.590059481019127,-5.97851632469602,1.5750767699695782,A
13.488475098528344,-5.093091708310716,1.329423386221398,A
9.721049255373808,-4.308378989263292,0.49468755493166133,A
6.762969543058651,-5.747679836700829,0.46338987560518624,A
5.804488598556083,-5.0795098431295065,0.5851599282321126,A
5.898580033506541,-4.826425051749863,0.8863399748564806,A
6.55372138993033,-5.427982578578982,1.018888128709183,A
9.061350806451562,-6.151591088685184,1.1361230261834918,A
13.343095924751971,-5.871475588206444,-0.1346560907738452,A
12.115676482236012,-7.125978479431622,-0.7401189098804029,A
12.188361249099598,-5.930270295353866,-1.6014915253099304,A
11.833234930340979,-4.916254479772388,-1.5184735842930708,A
7.291855615979943,-4.036384725200826,-1.4845979868090022,A
7.460027251648618,-3.578403700027442,-1.1487975421461696,A
6.237998811365594,-2.1786110665590535,-0.8824870172790691,A
7.704137384818054,-2.008252642622899,-0.7674611711960463,A
8.840489666078295,-1.8083703391609225,-1.3407202924653339,A
10.75266163450492,-2.441993669199445,-1.4421801883112333,A
10.44920641953259,-4.079152316393781,-0.085787542316091,A
10.157818466981738,-5.203264846854821,1.5519625741245708,A
13.231822957122166,-3.8651809142033082,0.33902417579821353,A
8.41690806423822,-4.3324704195651025,0.026451825948473253,A
6.400116426133706,-6.099478061549264,-0.1376650213596163,A
5.520927079891993,-5.587207732876493,0.2727018923895267,A
6.7819173952131635,-5.435752164826242,0.7251472623500463,A
8.063643731363985,-6.156121387688787,0.8746888684949593,A
11.927332712286198,-5.530241587581213,0.28691296866242605,A
13.508745983350984,-5.734160489295926,-0.624538161509085,A
10.86387294339223,-5.899287237223493,-0.4841818150119774,A
12.492368237972265,-5.200036924319094,-0.7118998467867652,A
10.661275107152685,-3.3524700763606683,-0.9606572399918468,A
8.014758447615323,-3.3672711841552188,-0.6336184826556508,A
7.531200457527979,-2.8135672664521327,-1.175092303095805,A
7.378197886250312,-1.8223122759133936,-1.2773320614232138,A
8.091988953502495,-1.834909812185153,-1.7665070104877598,A
8.835488779430847,-1.8848392812853314,-1.87374230723906,A
11.181937988381847,-2.7238471539491766,-0.7172062322290218,A
8.699450010475537,-3.3691672344260386,0.43452924184388597,A
12.411560689156941,-4.867212909388131,1.2367294352767022,A
12.014517258778438,-4.6254890158611826,0.7931602624713125,A
7.210018311887106,-5.092529256346283,0.9002727002872325,A
6.504128501764064,-5.786491613794019,0.8569145600593544,A
5.417717592141833,-5.244032515325671,1.1021200469392731,A
6.850723033477171,-5.7563477347212775,1.2968558542483697,A
9.441021832550119,-5.8149549390386515,1.097561414558252,A
13.661863190037323,-6.085126779396582,0.3400482798188714,A
13.62260134407567,-7.105808530866334,-0.43137863349562733,A
12.868879265957355,-6.267605829884835,-1.4397271315585372,A
12.401661922543889,-4.316208781237492,-2.1455663133507072,A
7.409833361478995,-3.2870699477809873,-1.5906097897258928,A
6.84924432717802,-3.244288860167167,-1.4734642064034789,A
5.294412887762526,-2.0758976437462104,-1.1798677854186055,A
6.771470544033931,-2.2893687488153858,-0.9171842354769068,A
7.533231181774106,-2.4963384493831065,-0.9953444023487233,A
11.477092531182613,-3.3315648708291734,-0.8737375531104874,A
9.809247063084165,-4.006974973867588,-0.8533262114178124,A
10.11551193056493,-6.828555239515339,1.144205116314014,A
13.938440563427287,-3.977124955790324,-0.2616503956679116,A
8.554310961034439,-3.9682272727518093,0.7049818176758803,A
6.135336567959339,-5.691285540087098,0.03810004544522458,A
5.918546357991399,-5.500615987221737,0.32267063689165276,A
6.965717224331907,-5.974190194547518,0.8305867848018025,A
9.075344191823158,-6.601612245362877,0.9799408576158118,A
11.702146888386334,-5.473172913102405,0.5979908244544324,A
13.618137412491482,-5.986957709973716,0.09476409376907817,A
11.07376059717444,-5.773603258756023,-0.6879893677045241,A
14.113421516486031,-3.9880599722752863,-2.397459396119742,A
9.417167164049252,-3.197832655811674,-3.126194243728385,A
6.610725849559467,-3.846129751239889,-1.846870129030418,A
6.579924875634193,-1.8264489435953888,-1.8994738316018847,A
6.56497979398486,-1.5336545540581625,-1.1582392941012327,A
8.403618712875465,-1.8793068970127988,-1.4169451847676096,A
9.796439891743539,-2.433013374380298,-1.1741716607062207,A
11.470352214190614,-2.4967891213838698,-0.595820812081614,A
11.047511301585885,-4.678636306835517,0.9369260446109025,A
12.758224209872193,-4.913365318019024,0.8578649579736676,A
10.42309551198641,-4.578669618097322,0.19264898590328608,A
6.338845281490323,-5.013650494424911,0.7833898537520503,A
5.6684812309967505,-4.8835804562055,0.5259311741458229,A
5.426769887660209,-4.573375558802016,0.95233419629211,A
7.963660683514688,-5.293037409722712,1.2275428675968507,A
10.075043762552509,-5.002121844510445,1.042928575351262,A
15.681655192602499,-5.559467818064068,-0.008030063044384311,A
10.82687745539984,-5.72109647188587,-0.4177268853088091,A
10.892931501966578,-6.093267364862708,-0.9896175612211133,A
12.710878250779764,-4.47242486020031,-1.7002404514041463,A
8.67205330531643,-3.445705565198489,-1.1967790317512583,A
8.96197725510403,-3.723238159329573,-1.516391658826766,A
7.756417219788588,-1.963265476717143,-1.5370891581867152,A
7.976388518830523,-1.8066295537413646,-1.3675774127049651,A
8.165626053522606,-1.441136556612936,-1.5135019274771004,A
10.383366547338065,-1.3820452228020614,-0.9375406903085882,A
9.328289777936364,-2.405719377248426,0.19888888995184864,A
11.652578096742317,-3.490309273266906,1.4830856202477336,A
14.268522957878815,-4.728697256185505,1.176132763333946,A
8.831380837255224,-5.321808989798272,0.2943982144538597,A
7.1727906170508335,-6.22678553315502,-0.06734270237154082,A
5.644502174430576,-5.49077554148421,0.827541571505994,A
6.595968085882382,-5.503431474322703,1.1417238743782254,A
7.78591114688109,-5.597304211466234,1.2334125147589141,A
13.121265147863392,-5.512845270898157,-0.3421135990779489,A
12.157709071921515,-6.361463030749539,-0.9960620086383085,A
13.860689472094027,-6.957602495274469,-1.1712608879138915,A
14.98884143292595,-5.124752928613191,-1.7057795050925333,A
10.926625725901449,-4.2401523501368725,-1.6486256037090106,A
9.924515011857387,-3.321644171143084,-2.4279017644783494,A
8.295026377878568,-1.6562026262671463,-2.1575088589928644,A
7.455246451907389,-1.0934970799081265,-1.94447055952142,A
7.300378592884323,-0.8185601348022685,-1.4282600453084577,A
8.263492965439523,-0.32143114622067037,-1.7447724406578855,A
9.177530421921352,-1.9967282774200275,-0.5789523054830106,A
13.217994628900918,-3.7319806722071536,1.1886630162009855,A
15.412973646050844,-6.895349805700977,1.1589416450445953,A
9.358557091164009,-5.754551832141999,1.2620302216312391,A
7.865204065108504,-6.131146026736513,0.16296192733651116,A
5.593735392508087,-5.921230637420573,0.22462459933933038,A
6.882474746648751,-5.483976823963559,0.9409079248613544,A
7.898112855128023,-6.399152523818994,0.4652901393705311,A
15.362600287329023,-7.735067517812583,0.6555421385985608,A
13.618577966305976,-7.691328375428791,0.19810731731952966,A
13.83335688978957,-5.178528615671311,-0.8076379176879827,A
13.294240448277016,-4.465513713947419,-0.9148967554253451,A
8.286682693629471,-3.333389116539676,-1.0562303181531767,A
8.092295135987918,-3.116036120162722,-1.2298422617818283,A
6.873484711402681,-1.50865541527684,-1.1230795728324672,A
7.0837424478510105,-1.8081132400014372,-1.2540407705890335,A
7.931908193404545,-1.6315063060639803,-1.2159464505398088,A
8.893823879143897,-2.804950858563603,-1.1398429088767095,A
9.45704847288782,-5.3753456644335165,-0.07488244967508075,A
10.605694249236105,-8.751870159782271,0.3302763275765622,A
11.638375619406935,-7.353272940748479,2.7969961377717447,A
6.341661585420797,-5.960640676201452,3.6002810858166017,A
4.175305841514075,-6.000312936430618,3.6156099834008475,A
3.2022798314278837,-5.887411704307774,2.1129424879837067,A
4.55020387604853,-3.973912627008193,0.5884018841253976,A
8.85125632182273,-4.853397750493951,0.6499997764837138,A
14.23593911219125,-4.767824250203463,-0.39907312567844566,A
15.08227265199758,-7.692376775367248,-0.983748144915796,A
11.098954281154164,-7.548948895735591,-0.9099858377910176,A
12.342305822991486,-5.516418655546616,-0.8554804182283408,A
8.530415110629049,-3.952675514200391,-0.32195210877576497,A
6.817481877792701,-3.884383277409912,-0.10243736750621231,A
6.450631737801141,-2.534038451954613,-0.20601086593896906,A
6.632239325032735,-2.1397059533685083,-0.1720482995306205,A
8.781475864226069,-1.713707376338893,-0.7339868983991278,A
10.94017467563687,-1.7299331373762286,-1.4256051077084129,A
10.537585288978002,-2.700660881319736,-1.280109479322109,A
8.843686388458858,-4.604696022825332,0.8416582666792625,A
11.954350388378174,-4.351636842893705,1.5084379102276477,A
10.964118449933402,-3.392701637076096,0.44982871287032566,A
6.641149427415418,-4.994326254801467,0.6257736232540059,A
6.107849353443402,-5.615992767108,0.45292346225835267,A
5.714635085186014,-4.9620052692676095,1.1063991018465709,A
8.156449552651983,-5.767669582813391,1.2940087346792617,A
10.111805707431412,-5.734529885182124,1.323087627933643,A
16.282762452023643,-6.225978143702813,0.3683318267562562,A
12.299705591169127,-5.591803135709895,-0.46910743440822716,A
12.346646243010083,-5.721455215245938,-0.7345874915642763,A
10.885476627269265,-4.044223079686452,-0.8988417767132321,A
7.393447483335473,-3.4419237414725035,-0.6847179594753339,A
7.114703594057618,-2.909474614263117,-0.8499688400432439,A
6.404428234339021,-1.8477377435775044,-0.8463488798813019,A
7.246245485127732,-1.9181965743293994,-1.0585116618957497,A
9.4186987626886,-1.651708594641626,-1.8326125753909333,A
11.221026765576937,-2.186884053688766,-1.908953243078921,A
9.671812767752833,-3.8915097168562323,-0.4122031242773397,A
10.918671273655077,-5.579745781982176,1.9359838404177099,A
12.276701445654874,-3.210688814007965,1.4667129312609646,A
7.316348926130765,-3.9663066742189104,1.6743124994992156,A
6.006534361550306,-5.620840660565678,1.0687711267413265,A
5.140742186862433,-5.487855708546768,1.3896096371863127,A
7.268083357947065,-5.567487082621195,1.8825965549431212,A
9.091394841461486,-5.629342310249766,1.8652627828855417,A
14.999162909070769,-5.346807741352656,0.6907799696359146,A
14.08231967235291,-5.747639708479941,-0.6319025528539557,A
10.733629103436167,-6.086309056629906,-0.681018872388162,A
12.755060151632584,-4.482437755642392,-1.3148572900898008,A
9.400714194800043,-2.7725105096412594,-1.2345723016554648,A
6.6762500413262975,-3.485840068495987,-0.986490273294283,A
6.262178513867674,-2.6916020230112316,-1.0453758511167888,A
6.539904573553795,-1.7836450677211766,-0.6072251898787673,A
8.087516389966986,-1.4722548270966997,-0.8853268761325966,A
9.774529578434388,-1.5829829963021531,-0.9344582337137158,A
11.770018407238217,-2.5603934719575854,-1.1249475673174565,A
10.256084297939548,-4.3825799786034905,0.30153261591176506,A
11.888688438929572,-5.217859902093482,1.2221104380032546,A
11.145411260044874,-4.203875116267075,0.5931012400433479,A
6.5336664198726275,-5.079096526614158,0.6240344441946248,A
5.497241583906806,-5.732728928288733,0.9183884406184287,A
5.25176627113515,-5.1118071213028236,1.7391509848163456,A
7.60251769914445,-5.805414606064325,1.8115181111270091,A
10.920998769100446,-5.816345372702881,1.4103436924562454,A
15.165459771871648,-5.492465645426686,-0.3587108073916572,A
10.456562325401771,-6.16639120402132,-0.949725781864506,A
12.26640265463945,-6.391996337433731,-1.3924404211923902,A
11.502407289248705,-4.428022416625121,-1.4224299561948506,A
7.539227248190077,-3.657301055772625,-0.9498761341680639,A
7.660082805715361,-2.9781533722417843,-0.9253507831943879,A
6.492998251863432,-1.7738067874942443,-0.8476171775733106,A
7.722811058675285,-1.7070765496854396,-0.8896315449433913,A
8.363894243264326,-1.617218344994042,-1.0194859880868614,A
10.952463816128255,-2.412906641670229,-0.07871581507724046,A
11.3750262623364,-4.104610141739086,0.9207783494413189,A
11.250938136710312,-5.804187600600052,1.762140670226981,A
12.906396728029623,-5.3542892501764845,-0.04278037123623207,A
7.592465397727196,-4.726359525403908,0.5299246330795732,A
6.517410853120286,-4.469440306607075,0.058593593897754565,A
4.935171463568919,-3.8659717305722214,0.11429953863022482,A
6.512351053227147,-4.441159292926167,0.22601817527175241,A
6.711983357702842,-5.896682756573481,0.848827456046325,A
13.775884593025438,-6.463934983791521,-0.0995403029797013,A
13.136065992027515,-7.441761204258903,-0.32077584514211555,A
13.381188075012625,-5.976953324464156,-0.27197065029304973,A
13.58093771231506,-3.7224137173990237,-1.0754130176693413,A
7.461116091922978,-3.586884417748538,-1.347289083592062,A
5.3878656357767145,-3.0340208257947263,-1.2375687096585972,A
6.180552327014102,-4.953803726362626,-2.578970121264344,A
6.658903578990344,-5.562435928818537,-3.206432381919723,A
9.986286745879504,-4.289295905534277,-0.9231470368588811,A
11.545792587545229,-3.2956642767429907,-0.8450950494129436,A
9.875921038896069,-0.456405156928163,-0.42173264882158085,A
9.282920174498908,-0.9263740597537208,2.260823364977776,A
10.966854311656117,-2.6412496385889725,1.4304438515369802,A
10.317294383129862,-3.6734235585500663,4.317395930258201,A
7.5963673068205795,-5.5459952383957205,1.3170086985241176,A
6.307289767854509,-7.485433994043008,-1.5513558265419853,A
6.829330025736958,-5.27827448672407,-0.61955784465939,A
8.277308084916632,-6.018307869484502,-0.4214435228712538,A
11.195700936413886,-5.582626468881548,-0.13494804956102174,A
14.350586627350552,-6.667703424946044,-0.6740791616306443,A
10.796641981548637,-6.348042445115435,-0.6556467867082751,A
11.039607668454403,-5.5512550668231215,-0.6113793052092354,A
10.06581634713889,-3.444044177567286,-1.4607440047714384,A
7.724491003922193,-4.05875815872177,-1.2527439635907711,A
7.174400580962526,-3.669265707331765,-1.3243843194506548,A
7.541302281397811,-3.452848556516285,-1.224348631840133,A
9.82110231347692,-2.7413335977884623,-1.2448791558397487,A
10.201098534707569,-2.427086572098804,-1.1639953202052589,A
12.961403190131486,-2.4417048152691883,-1.2574392052971761,A
8.79387538779385,-4.238147651197772,0.35468807159339605,A
10.173058094104157,-3.568589544591423,1.4579888204314413,A
9.76728529958476,-2.1286446304241577,0.3415519367894883,A
5.966945533149039,-3.8816644693675233,0.1616396851068036,A
7.088326933056064,-5.444110933678983,-0.3440899355904978,A
7.680571804456443,-4.385344072129099,0.10708692867193813,A
8.844330474269968,-5.409496963545357,-0.0924007385353568,A
8.583486938849502,-6.085732707996153,0.4250083626462372,A
13.97130026599784,-6.010715582314196,0.6124749792274492,A
10.935448148148454,-5.163261483769837,-0.39357239267928157,A
10.622466509145875,-5.324733937714637,-1.2445112350505578,A
11.15872500099263,-4.983700362435638,-1.2476105647661342,A
8.153437088672094,-4.2605162213305805,-1.4549715791408493,A
7.990874242927015,-3.6435788849767663,-0.9330782055022709,A
7.282558598485931,-2.448361717196795,-1.1493608634873602,A
8.905364541450234,-3.595177408435328,-1.035747423936719,A
9.80732708791303,-3.229741007664206,-1.7079520697984585,A
10.852184680778299,-3.1948255088401964,-1.1822838274125664,A
10.159206916998741,-3.3103832333527365,-1.2183276591243963,A
9.864787232990274,-4.08712746277111,0.45483693504908546,A
10.238378448176201,-2.4495764927258614,0.2537126425700498,A
6.551798669562131,-3.590077167163382,1.3152391333580506,A
6.378614393136331,-4.8623307576841315,1.261176996249176,A
5.477959461468682,-3.726759076890211,0.309351889473571,A
9.008957876520132,-5.275915022884055,0.21584657549389896,A
9.005111076528017,-5.9196835162464945,0.04337442558280146,A
13.272426636030028,-6.678758816691266,0.7048923672640799,A
14.911253212843523,-5.912967685455553,-0.4927078495155125,A
9.866435542293324,-5.032283313553416,-1.4561728244416816,A
12.402870481300916,-6.028230174762179,-0.792962400803343,A
9.781227684014311,-3.117195954651799,-1.809000181324509,A
8.53441284701985,-3.104552762133506,-1.1531131216661987,A
8.362197299366041,-2.4721869184831213,-1.7280559948696288,A
7.682244894792375,-1.7132844409073862,-1.4513374353158843,A
7.763910403490417,-1.442260705344917,-1.7608624479682473,A
8.686763805411951,-0.9610769655677731,-1.4411768750317742,A
10.310287742519488,-2.2854804608774493,-0.6236327351714328,A
10.842076390885746,-4.092873084749256,1.3633064133123856,A
15.46221455955811,-4.258662347750571,0.8201002446287968,A
10.787219482288863,-3.474827161948782,0.44830900447700506,A
7.1371586475567526,-5.50739378478069,-0.035575328430296926,A
5.910823279028926,-5.191854197825513,-0.331823292127185,A
6.131660160653606,-4.949601948721552,0.8887051238638727,A
6.809122117935691,-5.543436148218166,0.9561476380435059,A
10.682597108694612,-5.503202093704036,1.0469665165493227,A
16.11795395485014,-6.099147462109456,0.20028556849303386,A
11.385215738719262,-5.338340311364988,-0.5632059859124355,A
14.228552188368639,-5.356179746284067,-1.0939046466185725,A
10.216951650360494,-3.340070038935175,-1.3371141909535982,A
8.167236559911396,-3.35763032110766,-1.46746157003488,A
7.188887172486068,-2.7982272552301524,-1.8221998058167828,A
7.819539812254887,-2.0994293859081425,-1.380136665040452,A
7.779842559328232,-1.8791494166677585,-1.828059345078961,A
9.46490234610624,-1.4062754353540217,-1.4552845542574047,A
9.782927723670667,-2.8021092203346787,0.046701696502874895,A
10.012904789952133,-3.959950165850736,1.66730890614826,A
13.92865936679656,-4.472610729128742,1.6169382541363584,A
10.270713295589294,-3.8975836273372724,0.9976306351807538,A
6.250117464221057,-4.546141095345021,0.6648618807322251,A
5.608705790432723,-4.6956231916756135,0.4241945503096993,A
5.196909552612204,-5.035185096394503,0.940768326363378,A
7.890741811762123,-5.985997502203752,0.8505239028567172,A
10.751321852353037,-5.400608849636687,0.019072134028148027,A
14.773865715952963,-6.7090811088113105,-1.0931144920745564,A
10.350474176107436,-6.643335075177953,-0.964884628240344,A
10.983790318021502,-5.833262045810441,-0.8607763345652413,A
10.043839956594653,-4.610907299239339,-1.1482531788738661,A
8.339894228534044,-3.5058619989088506,-0.6622694224952773,A
8.07620344910851,-3.065531570752562,-0.9274480427243752,A
7.897378854735582,-2.5395230222374146,-0.9145110595995677,A
7.780440218655866,-2.116680460029594,-1.4964210005980012,A
8.918185650636346,-2.002609875624825,-1.3956543320798092,A
11.0755808602293,-2.1778620942266635,-1.2063905843057794,A
10.004443316280252,-3.2348895731078153,-0.19969294917800162,A
10.35196617841261,-5.541941702739084,1.031558980896223,A
12.58074519209439,-3.2614254322739225,-0.3677471598433501,A
7.650799455661488,-4.343266397493148,0.19725341279708136,A
5.977035031151175,-5.130715829107258,0.1670053116466465,A
5.214390080659538,-4.7400037095909635,0.8680718535852974,A
6.982153437205638,-4.715611280544407,1.4332931763792296,A
8.112980466976369,-5.684548178112134,1.6040940587559913,A
12.531051984383517,-6.306943863685049,1.1254935536093231,A
14.833400458454495,-7.138304572477569,-0.1913299894671199,A
10.714001617070716,-8.228655902158462,-0.7417599242702035,A
13.719226414411072,-11.015036032740712,-3.4263174966695824,A
13.70456286716643,-8.357629994359469,-2.5790600842772817,A
12.881390756864574,-7.682202132961715,-1.8773759059032433,A
10.639562781676972,-5.6022957146931915,0.04783528833954179,A
8.052856946504969,-3.80692198821441,1.7785500619285,A
4.328460715905978,-0.5097095063527428,2.183488105933767,A
1.8781805533061189,1.9349465111405597,3.308297568582971,A
1.240664552377113,1.2967307217496158,5.8004438321858585,A
1.9694866773581556,-0.7158949138834286,6.476070249574089,A
4.126577836867952,-2.299467988501808,7.1521431306054515,A
4.764976367923562,-1.8877129522084724,7.0100705320765755,A
4.117733562605264,-0.372234707770586,4.049507172257772,A
4.342283885379579,1.840471398577761,3.468457518409826,A
7.503416327266435,-2.0909957807939885,0.6683499797818602,A
11.039399875054922,-4.691989419948104,-1.4104257426785953,A
14.130270849790278,-3.012547061014185,-5.720912371070235,A
19.275625920413187,-14.413565496419274,-5.547574696714431,A
15.177196135927524,-12.355900288331027,-4.683534757512706,A
10.1400992766375,-7.279913609914899,-3.0405841124707074,A
9.261880153191004,-8.534305450575536,-1.9293365266869849,A
7.9325923800176,-6.7793443209235065,-1.753152125040478,A
8.288844939756991,-4.792408755934072,-1.1441527509752174,A
8.004920391826934,-3.426288265140581,-0.887748285463756,A
9.762396827654552,-4.3402168594796695,-0.9969262754281539,A
13.02924068020329,-3.5269343869218703,-1.6020931875113509,A
12.91757381520217,-2.809840967553546,-1.5473391813609263,A
10.705894542492167,-2.8666853167004596,-1.1129277063998526,A
6.464877790457333,-4.032536052191068,1.0261762898445868,A
7.7739506849258895,-2.6864743838876164,1.528886205619857,A
7.807955193541684,-1.7479895232561498,0.7209929695962463,A
5.532663283952087,-2.856479416969372,0.6938342415417105,A
6.675795624078297,-4.097213633290961,-0.052797932033132294,A
7.621346245739892,-4.489824699269789,-0.20283833886785133,A
10.702375691226349,-6.145326358130895,0.563875214351757,A
11.281128134329993,-6.947212074883504,-0.16451024086070143,A
15.21095680899334,-7.946902766197785,0.008792512528463576,A
11.37046120293681,-7.95750427842858,-0.19380557509544072,A
9.731285323063023,-6.762178991696253,-0.8033557310464151,A
11.430284702853449,-6.326346296432784,-0.7697450793781697,A
8.93342078408868,-4.372251184913135,-0.9603230540468856,A
8.57976423306953,-3.8913453355862693,-0.8113627288478226,A
7.977102451291064,-2.4128916705089622,-0.950648020549703,A
8.099210918042067,-2.0007409116005483,-1.023062054187718,A
8.796548943218202,-1.5878399599601556,-1.8220913728902244,A
10.777553562253653,-1.9529966261887506,-1.790636606781591,A
10.364689198890268,-2.696235901510704,-1.439076723370857,A
8.956998572432523,-4.805903083025561,0.9437411882551063,A
11.959679858960659,-3.4525613240496087,0.789163544603168,A
9.664840844205624,-3.1674858345808787,0.7170934223205273,A
6.621094961706212,-5.0851430767044095,0.60153138731003,A
5.96926189819856,-5.48482479079663,0.3458858887156601,A
6.83619276049557,-5.481220248561168,1.1116902984569228,A
8.302710473446979,-6.109952630137622,1.159407130172765,A
11.739295865881871,-6.033774606660824,1.058783795738886,A
15.03363429563868,-6.197862564505925,-0.4268466246542378,A
10.545993361511405,-6.485698893320803,-0.974037704536634,A
11.051839262730814,-6.042659742412074,-0.9221075172265675,A
11.199357296533224,-4.286389008826979,-1.5030588998942038,A
7.671417662453199,-3.4602476061461305,-1.330784060522231,A
7.078225614072178,-3.308495839385956,-1.3850412916275745,A
6.393664308319092,-2.4756222019763854,-1.1610411162995318,A
7.95856842302827,-2.1298033631588456,-1.2944057811814056,A
9.016821014013118,-1.7732397577916856,-1.471813422334301,A
12.008541128561854,-2.0260757266461265,-1.5639979084640379,A
10.601551721083096,-3.678368793157853,-0.5872026691282787,A
9.748230254967467,-5.640405821668178,1.2993316777505617,A
11.785283928045017,-3.92860487755379,0.730980578752149,A
7.50260555313339,-3.57396257269483,0.6160745314500695,A
5.736932847458641,-5.370140312304294,0.058091868479838216,A
5.487502311757637,-5.132135177308825,0.44210287448773045,A
7.013947749781494,-5.446042678015969,1.0323986852410834,A
9.370591780566576,-5.7034705421106,1.2381653535243389,A
12.557719309448096,-5.376258601355236,-0.003790994681558181,A
13.79764988970242,-6.5436808405037965,-0.38177924508056776,A
10.23169615384053,-6.458224965119747,-0.7910534703615841,A
11.806637502099434,-5.121389358029924,-1.0076299976950545,A
8.861430872479529,-3.7392021992370648,-1.2035772003030338,A
6.8241203348651425,-3.585952239283235,-0.8177049441640319,A
6.896593860239273,-2.7909116104072806,-1.0410849814359309,A
7.115177193250762,-2.0504974494963477,-0.8983439021591896,A
8.60431241061565,-2.0239798118134944,-1.4438204718039576,A
10.607625429734691,-1.9383205927199592,-1.49408359615354,A
11.67564329810655,-2.9190034067932866,-1.3087062475234046,A
9.464609539701227,-5.200630487841901,1.1560399157705807,A
13.109293993829603,-4.613112775523703,0.6131800291427969,A
9.026200120620938,-2.9533442609243337,0.46394005881771366,A
5.646902351496192,-5.01776811536736,0.34891048941478764,A
5.2205274295267925,-5.073471623147122,0.6636071772234089,A
6.277796788894495,-4.908000106758616,1.3977034184335482,A
8.584261420951199,-5.359483247957935,0.8175952381522479,A
10.660115280050443,-5.508872221407443,0.14591727782378835,A
14.301845388532184,-5.854796389593617,-0.6101795908457884,A
11.56533709241188,-6.502376005799019,-0.29005372037933974,A
12.236278716846114,-5.298844541994594,-1.0633009359537822,A
10.834225336075463,-3.6131981908510094,-1.2849326182440242,A
6.870545530115966,-3.9220988999502278,-0.7804253857340696,A
6.802200341801435,-3.1488275967240416,-1.1175955606204004,A
6.19091016185892,-1.7979125102816718,-0.6793292326646457,A
7.756702217883,-1.6619832000193975,-1.2154189276227632,A
9.304148221635662,-1.7600026520854735,-1.562077862631018,A
12.232056606981255,-2.737116469391405,-2.144611438725839,A
10.519160532483019,-4.669161008808783,0.007539789754990304,A
11.246614410148187,-5.340573620931411,1.1469107466931308,A
11.56133934406651,-3.6908755686401435,1.0605447952390386,A
6.159292321035456,-4.6449558132453515,1.546137493569807,A
5.438071024337162,-5.015952991166743,1.1056200716598479,A
5.051834662675688,-4.685677677677891,1.714892259917768,A
7.962800565514044,-4.798533457006329,0.9881406213727413,A
9.30398916453941,-5.4702485458685235,0.780051266150433,A
13.47485662066132,-5.20885144627724,-0.38398911225761945,A
13.441488576518504,-6.300347188582393,-0.19907827538796705,A
11.251364580012483,-5.871952101446192,-0.738203843477175,A
13.211853726078324,-4.404513068261548,-1.0895965105163046,A
7.918624040312938,-3.3661291200029604,-1.0117911504841801,A
6.808066064185526,-3.8326668382522073,-0.7933158255344569,A
6.1076995889399335,-2.1154123199694905,-1.0271858725447789,A
7.290208404478325,-1.8696710357691004,-0.7947623178052469,A
8.26598017326043,-1.6381323567754873,-1.6829201322284868,A
10.44919010038211,-2.4781703512544135,-1.7472955539080601,A
10.834956435416402,-3.5693838657243293,-0.43519846057697364,A
9.776019692689324,-4.7551521905539795,0.8299056226941017,A
13.272185132064735,-4.861590925386475,0.9625237470041363,A
9.367784950284188,-4.418632820762804,1.076946796460845,A
5.782120096383608,-5.435216997620134,1.0236875314839786,A
5.522442835834419,-4.985909983185593,1.0836945861220606,A
6.013630201723,-4.821417989060029,1.2361737812572082,A
8.621575517393444,-5.3694323581130154,0.9206010247727394,A
10.527352205545002,-5.0279229306909565,0.1298143748940676,A
14.490052235536277,-5.629116928987912,-0.17844055484481178,A
10.91780312328531,-6.289673687500505,0.1306907646176686,A
12.762429288640307,-4.834229792889998,-0.7059799866690984,A
10.705944000052238,-3.3360680347381484,-1.0943716070405514,A
6.893087778322166,-4.2307815829340525,-1.1538916228595408,A
6.587336166476532,-3.3422183145346374,-1.2730743723907922,A
6.856783563766078,-2.6256979381523173,-0.9057796790095543,A
8.01553601484248,-1.9881414225467733,-1.0450748777232997,A
9.749886342056229,-1.7352473683825218,-1.2705950026199488,A
11.581648748113063,-1.9128946385769767,-0.9807790818164248,A
9.181594877166713,-3.9845907465406705,0.547975516160593,A
10.76512875125666,-5.3509577158930295,1.7077165302830686,A
11.67335722557796,-3.7709323488541315,0.1731293595029879,A
6.668591051786122,-4.968150307833474,-0.043108435338554844,A
6.26681230359609,-5.2177137579058135,-0.09836771354397793,A
6.171380469432114,-5.042741122850809,0.1814491192365691,A
8.910659482247938,-6.33897528101976,1.0294929623682891,A
10.34382737742666,-5.7784819992160985,1.01548485575066,A
13.096171422234494,-5.3808588613495285,0.8552602204031313,A
11.932192704374636,-5.699506792754152,0.7772472537773853,A
10.662324677142394,-5.050665452008779,-0.35563644203164113,A
11.459292840196692,-4.092692598836783,-1.5711804906280065,A
7.450358419287497,-4.674165781105557,-1.5681621670923613,A
7.667344430353156,-4.558198629703313,-1.5662915587718853,A
8.567058178566041,-3.4254944921943036,-1.2341628929184818,A
9.539898726124346,-2.396039347549591,-0.49140182613967,A
8.622848494603309,-0.9460422683011264,-0.7150538360211286,A
8.94267778720266,-1.5153043417947532,-0.5869501135034982,A
9.50118648113758,-2.1405218298311097,-1.4791741769308797,A
10.529783371891838,-4.637271740909051,-0.46481929892761137,A
12.690507412329435,-4.623909264214509,-0.6329976034871984,A
10.002445157245177,-3.535726394027362,-0.5014624177831902,A
6.381184152358435,-3.641972166263015,0.3901920506174446,A
5.351407968529777,-4.851401100926267,0.21954134137114864,A
6.524039174606073,-5.390138421091834,0.9593159929454768,A
8.973186230853203,-6.0075157818092135,1.1268694876908292,A
12.094389795122432,-6.777915869961669,1.6780878076764383,A
14.190241851210937,-7.9594338936952305,0.8894341598897566,A
14.213308141842615,-5.482750074674817,-1.644850225017715,A
12.529733541681566,-5.062935690121271,-1.4496075428313122,A
10.686333907560225,-4.047812566012844,-2.5482344328514914,A
6.372006473915432,-2.7851174903226847,-1.9941963472631672,A
6.067569300301622,-2.5683113655166947,-1.8107329684775302,A
5.640364070537739,-1.5348473500728061,-1.3797708314766657,A
6.982494936879267,-1.6750622606668877,-1.457229899459751,A
10.059255092665017,-1.975925720796047,-1.7461316908495286,A
12.984424209527877,-2.2495985269101944,-2.6837953527106015,A
10.492607729109977,-5.313544865395133,0.3007129048534287,A
11.346812990100494,-6.522529486749338,1.071100990441339,A
12.67281856173139,-2.9523189494197264,1.8042769185302256,A
7.326042311438724,-5.119794039313202,1.68454867124116,A
5.498338061442433,-5.870392017359272,0.5620129905659995,A
4.541395101688425,-4.483403566658693,1.1974267349925245,A
6.74537081598865,-4.777260004311404,0.739331497737283,A
8.875714969986097,-4.848770784258074,0.8781831628446106,A
15.815544886486755,-4.8502266344624445,-0.40963857102101253,A
12.580474322999097,-6.21362305105929,-1.0559695006029954,A
10.89965009273098,-5.725243020404126,-1.0856125988372518,A
12.86634816455412,-4.101210602986531,-1.5177504355692266,A
7.0208753538733575,-3.59795283602739,-1.227902434132768,A
6.876296395709732,-3.714038215357421,-1.1389060225893572,A
6.181902914567341,-2.3729545586105014,-0.9493168948826022,A
7.501977616370199,-2.0422389213029257,-0.9544646948249901,A
8.858696943336422,-1.830282572444788,-1.3536425018599452,A
11.71695534457803,-1.9492278761130408,-1.646572434073965,A
10.466520432745943,-3.914841959917614,-0.8871277465686886,A
10.360039888601184,-6.197530722588942,1.4304657013436328,A
12.177356698978263,-3.531117811909235,0.030009346603438448,A
7.074003199231715,-3.6962968416969733,0.27705556704347833,A
5.509335602435691,-4.686551935432768,0.34423435214218095,A
5.059022599400144,-4.097451094480106,0.23016468743912777,A
7.04240012583065,-4.679854972283763,0.7448997145159069,A
9.059037333341747,-5.1268150842451785,0.9876471609056243,A
13.621179159914206,-5.2709856851138355,0.6016218077553788,A
14.270899686937064,-6.048473997418641,-0.1828324096850652,A
10.224985645336425,-5.494754152590217,-0.6104232273540804,A
11.461536871501531,-5.294876671729891,-0.7924092590718528,A
7.684336824080329,-4.033355303151576,-0.965320726186333,A
6.727171572721922,-3.95569360277977,-0.7398447603318629,A
5.922622012071942,-2.7725298837599146,-0.6697743301216729,A
7.503325612628544,-2.6459333774144635,-0.5680770733996889,A
9.112768656967742,-2.072182627501339,-1.1719093335833983,A
11.90542147938698,-2.409066721691973,-1.3562079168194907,A
10.91951369477906,-3.445942256304443,-1.469196444936397,A
8.940381236500423,-5.37335496565113,0.7939885108235464,A
12.197043517601694,-3.8901759483951404,0.8348540185962179,A
7.40351331430147,-2.9325348094884767,0.2868124882251735,A
5.013523985526909,-4.337184876192563,0.7786542563964938,A
4.964742612599904,-4.131637749970025,0.682291713523951,A
7.191705751733387,-4.240066100370841,0.9723711420498251,A
9.130209130938935,-5.086505105006246,1.1483026541860808,A
13.48306101477547,-4.713938805606676,0.3594508528546703,A
14.053604064594026,-5.948108577601765,-0.5459675848816995,A
10.186176668801444,-6.26011870819616,-0.5686832868824535,A
11.343040793516053,-5.332530795452788,-1.0494795882394292,A
7.73038457017654,-4.298148968683409,-0.9538162243365952,A
6.174821232990074,-4.1570399048282765,-0.699251371572422,A
6.477676163964219,-2.7602889728286293,-0.8099885712345429,A
7.274822204164668,-2.4510056543822096,-0.42473535834544524,A
9.271311218309965,-2.5182610890248256,-1.1799171756652969,A
11.374356417936166,-3.546091837952391,-1.8553573189470816,A
11.534879425754566,-4.896063358742412,-1.4336190870601162,A
8.779483383376807,-5.907194703984491,0.47599573973584675,A
11.674387498442963,-4.362725498688849,0.6791755155002668,A
7.2945005118123305,-3.1340217101341046,0.20290487617010566,A
4.588155098236147,-3.6226188833884603,0.41960872206477984,A
3.9208623422074136,-3.2890885033516732,0.11811998867461744,A
6.057091297887483,-4.016115725361369,0.41692407535516135,A
8.279674112673197,-5.133358283070464,0.9165680546602311,A
13.029688114821585,-4.894871855162786,0.23562859798134414,A
16.0021583101715,-6.244625151367888,-1.103770876895949,A
10.414123193205308,-6.96038311519978,-0.5296896338765763,A
11.960011822535078,-6.270459390836883,-0.6410152506087284,A
9.708911667500416,-3.9260320473239982,-1.1046628195090804,A
6.927429682134576,-4.202193245844091,-0.6919146646120126,A
5.9714272586149875,-3.473793681924178,-1.1108369138376808,A
6.0836734086677415,-2.3266436552718535,-0.575808663072993,A
8.145055279323984,-2.4564404582567754,-1.278236384394609,A
10.238019263951289,-2.7121788372556184,-1.320081423154243,A
12.137235799815867,-3.426601434554924,-1.4489764589565535,A
9.971646636220031,-5.347014804391062,1.0000155862607667,A
10.608721096132156,-3.8395993378948923,1.389054940119739,A
10.787357949528506,-2.46549568233784,0.49030123042305224,A
5.765777737822797,-3.950813114787902,0.547751457837113,A
5.339317530462349,-4.436543728434881,0.26605496975421244,A
4.986777144968729,-4.135443536491615,0.62676936171088,A
7.565346272556756,-4.512887485109099,1.0724627288317359,A
9.238418704289835,-4.847570986379825,1.289220971021883,A
13.280188483626297,-4.789770271143602,0.12671001484373862,A
13.37174077857495,-6.2074429739472325,-0.4001430218833679,A
10.486686684918862,-7.0119597049271905,-0.2853676745773213,A
12.891886560472958,-5.109891596188376,-0.8382447043629242,A
9.284413081210953,-3.3520555481037366,-0.9736620657705372,A
7.021892663491126,-3.7203434638498116,-0.8709343160678911,A
6.189398925699462,-2.739715463099193,-1.1440526292745217,A
6.764481961261925,-2.258668209124993,-0.8665877860067159,A
8.261691490097197,-1.7369545412560308,-1.4772563477127667,A
9.958525854176031,-2.1157062384595586,-1.515957242919547,A
11.383405542853252,-2.5599422093875495,-1.2629488936566589,A
9.370130399975743,-4.509362307289167,0.4071168380617894,A
11.95625223475602,-5.12694768825605,1.2343385502634223,A
11.210706572348279,-3.9167482921035734,0.664368720477469,A
6.410317080399128,-4.530432304668577,1.044156575911521,A
5.829473681141255,-4.604344641107551,0.8278450936946578,A
5.172342171455015,-4.254151193880474,1.0587930734937354,A
7.432510253419423,-4.696268387098076,1.084544151267633,A
9.399589303075263,-5.096051582484537,0.9335562434388985,A
15.458706647501458,-5.536696836122239,-0.02323695142557996,A
11.604591768604088,-5.85299755864936,-0.5761650562049596,A
12.36011376874704,-5.679230921145896,-1.0835495782276654,A
12.243989370006972,-3.973450485364639,-1.4631891641475638,A
7.9504739371009325,-3.488729458318738,-1.213774531424403,A
7.25455821883011,-3.5626206591842875,-1.1689758015320268,A
6.666292442400678,-2.0096633155834023,-1.2036052357323583,A
7.45509001429838,-1.781497042142927,-1.1704373883222583,A
8.401084689561031,-1.4515650607835848,-1.8572775870959644,A
10.401127999299092,-2.2148438368292616,-1.4930257339994828,A
10.337658653233715,-3.250324056162629,-0.48419515777872724,A
11.535740009032727,-5.4011031038329005,0.7735697028287338,A
13.1553494423011,-4.816342172248098,0.498417119028926,A
7.941926020456157,-4.7471302672931035,0.744346528272424,A
5.991632712160765,-5.376312130223573,0.799870828909733,A
5.708443453168773,-4.973014786024527,0.9400966040413161,A
6.812170725016904,-4.839473654785055,1.132558731674645,A
8.90826857362727,-5.070722758223407,0.9978868326974029,A
12.160238154073296,-5.005421130891648,0.5920023543749832,A
13.829588706064527,-4.923903905393112,-0.4190000786167213,A
10.951461325814922,-5.5171575988625134,-0.2590157430550786,A
12.000714492082267,-4.763336183035268,-0.8059939699729175,A
9.782481583012068,-3.5187972167029518,-1.456098225351352,A
6.923289650608225,-4.048144982396702,-1.2002208669971504,A
7.285570945159735,-3.400251451340935,-1.3756498630866538,A
7.1021806262632,-2.8378092189186064,-1.4018965443680758,A
8.483946854523358,-2.6997631323286106,-1.548779555866914,A
9.034579955602004,-2.432390888085685,-1.3508951666256341,A
11.232071970490054,-2.7440651678428956,-0.5615205739540258,A
10.72020418119896,-3.669923060545971,0.33838744966197487,A
8.886585601210133,-4.2439565749131205,1.1047717763089657,A
10.81686011827255,-4.072427963827635,1.3493322479087118,A
7.4659728715676,-3.699263648806218,1.093234328015456,A
5.855004426784819,-4.246637983146855,0.26768787455295384,A
5.154108301459268,-4.758069870897507,0.18908693705210103,A
6.96101317792115,-4.838640751296666,-0.13746671911144487,A
10.192182997894292,-6.238588182778214,1.1029215335147622,A
13.303605598791808,-6.1330352173066895,0.15482618784983992,A
13.40896926127224,-6.620760546915827,0.20735256024141063,A
9.85018064788195,-5.429739432929896,-0.47163055872025217,A
11.367082243503901,-4.982636643579114,-1.1247487780829004,A
9.670873265271105,-4.527892265924385,-1.2652107152755043,A
8.147502485122237,-3.94076857202684,-1.6496177967666186,A
7.926468999488797,-3.226324165238761,-1.5542521781436862,A
7.498781636400271,-2.2722900403359736,-1.7734514319582377,A
8.176697424612792,-2.0231860337975522,-1.303164928141703,A
9.734300897154736,-1.579674065961351,-0.9688280520153262,A
10.612775783272705,-1.7916675079748228,-0.7038932246560852,A
8.12460753816532,-3.7144564666138926,0.38224598119949116,A
12.361337688200601,-4.974279601508134,0.5280017826766455,A
11.347103469622063,-4.417965839701558,1.3145896480454997,A
7.230845439586895,-5.8160240702060655,0.9927560572272901,A
5.982224320551576,-5.720449196046022,0.38706668571251807,A
